"Time (s)","Linear Acceleration x (m/s^2)","Linear Acceleration y (m/s^2)","Linear Acceleration z (m/s^2)","Absolute acceleration (m/s^2)"
8.220625023E-3,3.375113739E-1,-1.898126069E-1,1.288433969E-1,4.080972607E-1
1.824762500E-2,4.289926708E-1,-1.610454753E-1,2.316772091E-1,5.134634222E-1
2.827362501E-2,5.534639584E-1,-8.583946466E-2,2.151471305E-1,5.999825453E-1
3.830062502E-2,6.439624844E-1,-7.473706394E-2,2.456766129E-2,6.487502448E-1
4.832762500E-2,6.638776624E-1,-5.940946519E-2,-1.349964219E-1,6.800640184E-1
5.835362501E-2,6.019810840E-1,-5.302196681E-2,-2.295049685E-1,6.464248488E-1
6.838062502E-2,5.749213395E-1,-1.596184623E-1,-2.480324560E-1,6.461677022E-1
7.840762500E-2,5.951164529E-1,-2.833952469E-1,-3.342391258E-1,7.390482066E-1
8.843362500E-2,6.852015808E-1,-2.803830537E-1,-4.340972900E-1,8.582285945E-1
9.846062501E-2,7.767762870E-1,-2.775366291E-1,-5.008450109E-1,9.650148732E-1
1.084876250E-1,8.902599254E-1,-3.505031562E-1,-5.634429628E-1,1.110352723E0
1.185136250E-1,1.006454772E0,-3.542249089E-1,-6.710966349E-1,1.260474985E0
1.285406250E-1,1.021029834E0,-3.415946308E-1,-6.862315679E-1,1.276754705E0
1.385676250E-1,1.040997198E0,-2.905914152E-1,-7.533856702E-1,1.317462905E0
1.485936250E-1,1.081034399E0,-2.107769215E-1,-8.500676268E-1,1.391286187E0
1.586206250E-1,1.161013931E0,-1.931727093E-1,-8.798211837E-1,1.469474177E0
1.686466250E-1,1.345415378E0,-1.733994725E-1,-1.031534795E0,1.704193049E0
1.786779583E-1,1.474539441E0,-1.404606450E-1,-1.112139248E0,1.852255237E0
1.887049583E-1,1.450634854E0,-1.377457827E-1,-1.097979046E0,1.824520037E0
1.987309583E-1,1.354911256E0,-1.315955351E-1,-9.263135648E-1,1.646559661E0
2.087579583E-1,1.229275934E0,-9.191516027E-2,-7.419105095E-1,1.438749083E0
2.187849583E-1,1.073202492E0,2.201812908E-2,-5.488985986E-1,1.205627662E0
2.288109583E-1,9.468565875E-1,1.540788102E-1,-3.543985713E-1,1.022680803E0
2.388379583E-1,8.496089128E-1,2.402666228E-1,-1.644143486E-1,8.981065820E-1
2.488649584E-1,8.440515728E-1,2.289376424E-1,7.324222326E-3,8.745794109E-1
2.588909583E-1,8.936890250E-1,2.014209379E-1,-4.823309720E-2,9.173750048E-1
2.689179583E-1,8.804271745E-1,3.109616527E-1,-1.604423350E-1,9.474127410E-1
2.789449584E-1,8.274981053E-1,4.587792644E-1,-3.200134349E-1,9.988193662E-1
2.889709584E-1,7.183207950E-1,4.425804305E-1,-5.714577413E-1,1.019031968E0
2.989979583E-1,6.820777059E-1,4.140650216E-1,-8.428170794E-1,1.160612109E0
3.090249583E-1,7.036695729E-1,4.768845829E-1,-1.153256283E0,1.432679248E0
3.190509584E-1,7.866497491E-1,5.738825816E-1,-1.448541259E0,1.745402768E0
3.290779583E-1,8.263796061E-1,6.119820155E-1,-1.664650841E0,1.956652157E0
3.391049583E-1,7.889552332E-1,6.612794521E-1,-1.804666513E0,2.077633773E0
3.491309583E-1,8.340476447E-1,6.238837306E-1,-1.942510529E0,2.204135553E0
3.591579583E-1,9.276216600E-1,4.343134908E-1,-2.121765110E0,2.356055461E0
3.691849583E-1,1.096859669E0,3.596430852E-1,-2.260108479E0,2.537820840E0
3.792109583E-1,1.392428161E0,4.379794027E-1,-2.375945914E0,2.788512350E0
3.892379584E-1,1.595405920E0,3.843171658E-1,-2.305799791E0,2.830147065E0
3.992649583E-1,1.582116222E0,2.445060003E-1,-1.993634489E0,2.556844423E0
4.092909583E-1,1.384783511E0,2.642581871E-1,-1.708794980E0,2.215273809E0
4.193179584E-1,1.028765115E0,3.520835124E-1,-1.537973837E0,1.883529662E0
4.293449583E-1,6.567960265E-1,3.678572537E-1,-1.264983126E0,1.472033386E0
4.393709583E-1,4.844721492E-1,3.558288002E-1,-1.000907080E0,1.167536886E0
4.493979583E-1,4.610677184E-1,2.189821731E-1,-5.172037661E-1,7.266611100E-1
4.594249583E-1,3.496500840E-1,1.850439101E-2,1.967003345E-3,3.501449169E-1
4.694509583E-1,1.181577565E-1,1.625335917E-2,3.644031572E-1,3.834254662E-1
4.794779583E-1,-1.701239354E-1,1.492085181E-1,8.020625710E-1,8.333724876E-1
4.895049583E-1,-3.859805890E-1,3.707728216E-1,1.345074193E0,1.447645704E0
4.995309583E-1,-6.299990411E-1,6.181902967E-1,1.705155088E0,1.920055184E0
5.095579583E-1,-1.038806466E0,7.740126005E-1,1.855336729E0,2.262849698E0
5.195849584E-1,-1.303922659E0,8.262318177E-1,1.955189631E0,2.491112163E0
5.296109583E-1,-1.303897808E0,7.693650873E-1,1.424970548E0,2.079089510E0
5.396379583E-1,-1.308523540E0,1.039155544E0,1.702788720E0,2.385700636E0
5.496649584E-1,-1.369145718E0,1.132675254E0,1.543003027E0,2.353374507E0
5.596909584E-1,-1.245684098E0,5.459418078E-1,1.464524038E0,1.998652543E0
5.697179583E-1,-1.031362375E0,3.922619238E-1,1.296559260E0,1.702540361E0
5.797449583E-1,-8.395571105E-1,6.609760547E-1,1.103784746E0,1.536257222E0
5.897709584E-1,-7.663611533E-1,6.866815111E-1,9.826099724E-1,1.422801206E0
5.997979583E-1,-8.256030227E-1,6.251984771E-1,8.607510746E-1,1.346620176E0
6.098249583E-1,-8.958033782E-1,6.588445254E-1,8.726788098E-1,1.413544519E0
6.198509583E-1,-9.737767299E-1,6.719251122E-1,8.267506850E-1,1.443343747E0
6.298779583E-1,-8.966216961E-1,5.929602921E-1,6.251497990E-1,1.243521067E0
6.399049583E-1,-6.188642614E-1,3.987954564E-1,4.176707071E-1,8.464511857E-1
6.499309583E-1,-3.597217302E-1,8.106945232E-2,1.444496155E-1,3.960273610E-1
6.599579584E-1,-2.027719371E-1,-1.165070875E-1,3.055111706E-2,2.358468373E-1
6.699849583E-1,-1.985286127E-1,3.379763737E-2,-6.570925534E-2,2.118338891E-1
6.800119583E-1,-1.594883618E-1,1.482791032E-1,-4.084981799E-1,4.629189918E-1
6.900379584E-1,-1.888945940E-1,3.106201753E-2,-6.600097293E-1,6.872109278E-1
7.000649583E-1,-1.896818851E-1,-1.019215004E-1,-7.841952342E-1,8.132216027E-1
7.100919583E-1,6.887906749E-2,-1.503743067E-2,-7.051391244E-1,7.086548067E-1
7.201179583E-1,5.461470450E-1,1.466679760E-1,-6.866379493E-1,8.895278318E-1
7.301449583E-1,8.934043387E-1,1.898786804E-1,-3.342408800E-1,9.725955951E-1
7.401719583E-1,9.766488091E-1,1.073406268E-1,8.817191899E-2,9.864781770E-1
7.501979583E-1,1.414835861E0,-1.477975850E-1,2.258913893E-1,1.440358136E0
7.602249583E-1,1.671996405E0,-3.337182120E-1,3.684529388E-1,1.744332936E0
7.702519583E-1,1.624878665E0,-4.036696954E-1,4.655097020E-1,1.737779957E0
7.802779583E-1,1.341383138E0,-7.504828200E-2,6.488169891E-1,1.491946531E0
7.903049584E-1,6.736111569E-1,3.278664648E-1,9.736087686E-1,1.228479729E0
8.003319583E-1,-1.339571524E-1,7.173418980E-1,1.275805153E0,1.469762806E0
8.103579583E-1,-5.877474993E-1,9.596739766E-1,1.389541683E0,1.788084828E0
8.203849584E-1,-5.038596891E-1,9.734670467E-1,1.240140061E0,1.655131429E0
8.304119583E-1,-2.243237507E-1,7.155268492E-1,1.245445240E0,1.453765339E0
8.404389583E-1,-5.952977166E-3,4.459479882E-1,1.068998491E0,1.158301696E0
8.504649583E-1,-2.324363239E-1,4.518515564E-1,1.126283662E0,1.235601619E0
8.604919583E-1,-6.765283328E-1,5.557769707E-1,1.436701816E0,1.682465671E0
8.705189583E-1,-8.077716462E-1,7.206926449E-1,1.455542715E0,1.813972854E0
8.805449583E-1,-4.553460717E-1,7.384786324E-1,1.295777487E0,1.559400536E0
8.905719584E-1,-1.172068530E-1,6.246050578E-1,1.463977908E0,1.595963734E0
9.005989583E-1,-1.084382953E-1,7.940681116E-1,1.877336878E0,2.041248830E0
9.106249583E-1,-2.691080140E-1,1.029110540E0,2.037399144E0,2.298365267E0
9.206519584E-1,-4.186290658E-1,1.048422577E0,1.865622566E0,2.180593441E0
9.306789583E-1,-4.793345663E-1,1.122770948E0,1.601250066E0,2.013548609E0
9.407049583E-1,-5.278559312E-1,1.148168767E0,1.151212682E0,1.709448461E0
9.507319583E-1,-5.880041921E-1,1.198999125E0,8.084740430E-1,1.561082352E0
9.607589583E-1,-7.983446921E-1,1.369552538E0,8.377294171E-1,1.792991628E0
9.707859583E-1,-8.505049255E-1,1.503215356E0,7.152635783E-1,1.869389478E0
9.808119583E-1,-8.168935219E-1,1.633384025E0,7.197723663E-1,1.962990234E0
9.908389583E-1,-8.585202156E-1,1.749832494E0,5.968621391E-1,2.038434480E0
1.000865958E0,-8.300887142E-1,1.856627210E0,4.134688979E-1,2.075347778E0
1.010891958E0,-7.214334141E-1,1.955913370E0,1.922517729E-1,2.093567297E0
1.020918958E0,-6.967580178E-1,1.894493047E0,-5.644317269E-3,2.018565704E0
1.030945958E0,-7.672814320E-1,1.864095127E0,-2.396405321E-1,2.030024390E0
1.040971958E0,-7.908715850E-1,2.089588175E0,-5.612350541E-1,2.303658263E0
1.050998958E0,-8.831068072E-1,2.198392579E0,-6.962203664E-1,2.469317793E0
1.061025958E0,-9.929257764E-1,2.211054579E0,-8.411050147E-1,2.565564576E0
1.071051958E0,-1.024306540E0,2.234141286E0,-8.130711240E-1,2.588759515E0
1.081078958E0,-9.453189160E-1,2.139560527E0,-7.517227221E-1,2.456915577E0
1.091105958E0,-8.241690662E-1,1.985273117E0,-7.735281587E-1,2.284493338E0
1.101132958E0,-8.406470315E-1,1.922005805E0,-6.276255101E-1,2.189682061E0
1.111158958E0,-9.659256003E-1,1.916785265E0,-5.340566111E-1,2.211853178E0
1.121185958E0,-1.070061076E0,1.718907886E0,-4.062025630E-1,2.065109089E0
1.131212958E0,-1.163588313E0,1.462423133E0,-2.970186746E-1,1.892310566E0
1.141238958E0,-1.154921132E0,1.332456779E0,-2.720194888E-1,1.784174456E0
1.151265958E0,-1.106433535E0,1.279844702E0,-1.576719242E-1,1.699134504E0
1.161292958E0,-9.862949608E-1,1.106824275E0,-3.678658783E-2,1.482966951E0
1.171314958E0,-8.689229239E-1,1.122976477E0,7.792935133E-2,1.422032419E0
1.181341958E0,-9.047063488E-1,1.271462718E0,3.330088717E-1,1.595620860E0
1.191368958E0,-9.767059656E-1,1.339702941E0,5.134258801E-1,1.735616503E0
1.201394958E0,-8.758051698E-1,1.214811969E0,4.632538462E-1,1.567611859E0
1.211421958E0,-7.276427916E-1,1.030080081E0,5.627904135E-1,1.381036587E0
1.221448958E0,-7.785886315E-1,9.382112599E-1,7.534207535E-1,1.433207402E0
1.231474958E0,-8.708366445E-1,7.726003517E-1,9.357778680E-1,1.493635827E0
1.241501958E0,-8.267931504E-1,5.904092250E-1,1.112873658E0,1.506870182E0
1.251528958E0,-6.651897776E-1,4.678735851E-1,1.273932289E0,1.511385659E0
1.261555958E0,-4.323176900E-1,2.899678096E-1,1.197929011E0,1.306144644E0
1.271581958E0,-3.275670142E-1,2.046614648E-1,1.247264893E0,1.305701412E0
1.281608958E0,-2.575591052E-1,1.821876915E-1,1.323788574E0,1.360861946E0
1.291635958E0,-5.276892856E-2,1.258081803E-1,1.209886567E0,1.217554008E0
1.301661958E0,1.867455961E-1,7.175162181E-2,1.093342203E0,1.111494214E0
1.311688958E0,3.410251120E-1,4.387019724E-3,1.106537030E0,1.157903956E0
1.321715958E0,4.752904127E-1,-1.596944761E-1,1.140864279E0,1.246184018E0
1.331741958E0,5.891309506E-1,-3.055246923E-1,1.307526882E0,1.466303912E0
1.341768958E0,6.295012969E-1,-5.037731503E-1,1.427125831E0,1.639130077E0
1.351795958E0,6.982698154E-1,-6.647115485E-1,1.580825157E0,1.851602105E0
1.361821958E0,7.277124466E-1,-5.507705116E-1,1.787672165E0,2.007158522E0
1.371848958E0,9.509978780E-1,-5.719600171E-1,1.728779009E0,2.054315479E0
1.381875958E0,1.197195624E0,-6.755163990E-1,1.502602860E0,2.036520347E0
1.391901958E0,1.287187635E0,-6.659847797E-1,1.140806977E0,1.844404590E0
1.401928958E0,1.295975415E0,-7.380133402E-1,3.562457067E-1,1.533338505E0
1.411955958E0,1.107261208E0,-6.949651153E-1,-2.330144674E-1,1.327892931E0
1.421981958E0,8.080835221E-1,-3.085200747E-1,-8.448255980E-1,1.209096318E0
1.432008958E0,5.590065341E-1,-3.643326983E-3,-1.044914979E0,1.185052274E0
1.442035958E0,3.634605130E-1,7.078295745E-2,-1.158850899E0,1.216572718E0
1.452061958E0,4.935352604E-1,3.731488377E-2,-1.243097582E0,1.338006373E0
1.462088958E0,6.973050249E-1,-1.811704221E-1,-1.171878496E0,1.375629394E0
1.472115958E0,6.900392016E-1,-6.606590626E-1,-8.940123761E-1,1.308389325E0
1.482141958E0,5.914816044E-1,-9.335964181E-1,-5.927275729E-1,1.254104755E0
1.492168958E0,4.947495078E-1,-1.016406952E0,-1.455564934E-1,1.139757369E0
1.502195958E0,4.400667856E-1,-1.313437833E0,1.506494182E-1,1.393367490E0
1.512221958E0,4.783775233E-1,-1.551587909E0,3.140434277E-1,1.653751302E0
1.522248958E0,3.934358986E-1,-1.403686390E0,4.766129798E-1,1.533716799E0
1.532275958E0,1.544278890E-1,-9.622357880E-1,5.381303662E-1,1.113251982E0
1.542301958E0,-1.731576171E-1,-6.103763336E-1,5.043089014E-1,8.104753525E-1
1.552328958E0,-2.942030941E-1,-3.373574460E-1,1.334200126E-1,4.670828692E-1
1.562355958E0,-1.963334218E-1,4.279906042E-3,-3.525830108E-1,4.035838322E-1
1.572381958E0,-8.315924719E-2,3.005946124E-1,-9.042122591E-1,9.564896188E-1
1.582408958E0,5.370155945E-2,5.629067000E-1,-1.436842734E0,1.544106490E0
1.592435958E0,1.488109805E-1,8.092624670E-1,-1.787698478E0,1.967972636E0
1.602461958E0,1.833305298E-1,8.306912698E-1,-2.030276651E0,2.201290837E0
1.612488958E0,1.803946793E-1,7.473462273E-1,-2.255690323E0,2.383108779E0
1.622515958E0,1.835338667E-1,6.516700649E-1,-2.266279630E0,2.365244578E0
1.632541958E0,1.665853467E-1,5.562894791E-1,-2.113664963E0,2.191982718E0
1.642568958E0,1.026898246E-1,4.331364463E-1,-1.832791620E0,1.886074628E0
1.652595958E0,9.773701362E-2,3.270089706E-1,-1.570716491E0,1.607369803E0
1.662621958E0,1.168560932E-1,2.692162971E-1,-1.505230014E0,1.533574308E0
1.672648958E0,1.018525764E-1,1.895855156E-1,-1.438608009E0,1.454616657E0
1.682675958E0,-6.095576137E-3,1.568935136E-1,-1.383537177E0,1.392417988E0
1.692701958E0,-1.258254296E-1,2.561588798E-1,-1.183239051E0,1.217170515E0
1.702728958E0,-2.384069889E-1,4.234684407E-1,-8.930838382E-1,1.016740948E0
1.712755958E0,-2.023827318E-1,4.525702523E-1,-5.888526231E-1,7.697571144E-1
1.722781958E0,-1.563967196E-1,3.808479396E-1,-2.867959875E-1,5.017539491E-1
1.732808958E0,-1.725574735E-1,3.091625375E-1,-7.339249671E-2,3.615854185E-1
1.742835958E0,-2.141800010E-1,3.172330108E-1,1.289427996E-2,3.829831829E-1
1.752861958E0,-3.249288967E-1,3.803223846E-1,4.912830591E-2,5.026305747E-1
1.762888958E0,-4.391620021E-1,5.014305364E-1,-6.909654737E-3,6.665910217E-1
1.772915958E0,-4.467545385E-1,6.497632147E-1,-1.498664761E-1,8.026467551E-1
1.782941958E0,-3.581562844E-1,8.360096048E-1,-3.472439182E-1,9.735329075E-1
1.792968958E0,-3.670937535E-1,8.990301642E-1,-4.408455616E-1,1.066469816E0
1.802994958E0,-4.391711383E-1,9.709239464E-1,-6.289814794E-1,1.237409512E0
1.813021958E0,-4.272510045E-1,1.081478934E0,-7.253044170E-1,1.370476779E0
1.823048958E0,-3.678861243E-1,1.103734825E0,-6.537198794E-1,1.334511313E0
1.833074958E0,-2.519861971E-1,1.054855318E0,-5.662782776E-1,1.223473692E0
1.843101958E0,-1.166090483E-1,9.565148722E-1,-3.176751333E-1,1.014611187E0
1.853128958E0,-6.762067359E-2,9.731370445E-1,4.830969572E-3,9.754955669E-1
1.863154958E0,-7.860134259E-2,8.444222132E-1,3.917944390E-1,9.342001539E-1
1.873181958E0,-1.213436119E-2,7.055091801E-1,7.232017583E-1,1.010401519E0
1.883208958E0,1.365503195E-1,6.516743772E-1,1.152095026E0,1.330657143E0
1.893234958E0,2.136859478E-1,3.811101872E-1,1.405999841E0,1.472325444E0
1.903261958E0,1.389334984E-1,4.049452655E-2,1.728663819E0,1.734710616E0
1.913288958E0,2.495825529E-2,-1.317886394E-1,2.190124909E0,2.194228401E0
1.923314958E0,9.898660015E-2,-2.348725663E-1,2.651792405E0,2.664013219E0
1.933341958E0,3.316834175E-1,-3.186101762E-1,2.807176314E0,2.844602818E0
1.943367958E0,4.705338855E-1,-3.931571326E-1,2.861610968E0,2.926566589E0
1.953394958E0,4.466788536E-1,-3.559706683E-1,2.996309182E0,3.050263239E0
1.963421958E0,3.510859774E-1,-2.607500039E-1,2.883035751E0,2.916015615E0
1.973447958E0,2.390278901E-1,-2.258362062E-1,2.604048720E0,2.624729712E0
1.983474958E0,1.487055114E-1,-1.275491157E-1,2.232167559E0,2.240748562E0
1.993501958E0,5.170674529E-2,6.468708895E-2,1.725929661E0,1.727915276E0
2.003527958E0,-1.550279595E-2,2.047056113E-1,1.104439634E0,1.123357303E0
2.013554958E0,5.145308577E-2,3.255831271E-1,4.568757033E-1,5.633712816E-1
2.023581958E0,3.328702927E-2,2.989777842E-1,-9.360105872E-2,3.150506308E-1
2.033607958E0,-3.134502277E-2,2.699995682E-2,-4.763545328E-1,4.781476227E-1
2.043634958E0,-6.903118646E-2,-2.333343831E-1,-7.720540756E-1,8.094922697E-1
2.053660958E0,-2.336233087E-2,-4.524140585E-1,-8.958530796E-1,1.003880979E0
2.063687958E0,5.911710441E-2,-6.422991709E-1,-8.092698491E-1,1.034872333E0
2.073714958E0,1.459542502E-1,-7.825763594E-1,-7.488184100E-1,1.092912354E0
2.083740958E0,6.954119157E-2,-8.797290900E-1,-5.770272142E-1,1.054381172E0
2.093767958E0,-9.571051486E-2,-8.426136694E-1,-4.794319224E-1,9.741731195E-1
2.103794958E0,-1.395650342E-1,-6.818312457E-1,-4.576200539E-1,8.329395897E-1
2.113820958E0,-3.018245377E-1,-4.920124262E-1,-4.663768440E-1,7.420792678E-1
2.123847958E0,-5.855133879E-1,-3.019603027E-1,-4.674433762E-1,8.077804539E-1
2.133873958E0,-9.366360931E-1,1.480478458E-2,-4.655617422E-1,1.046066006E0
2.143900958E0,-1.109718500E0,3.631867171E-1,-5.412720752E-1,1.286994639E0
2.153927958E0,-1.065884702E0,5.899194476E-1,-6.617416745E-1,1.386368348E0
2.163953958E0,-9.325914279E-1,6.807354044E-1,-8.988737512E-1,1.463250314E0
2.173981375E0,-7.607402980E-1,7.221714789E-1,-9.903423303E-1,1.442579418E0
2.184008375E0,-5.634990229E-1,7.183251804E-1,-1.161005014E0,1.476974900E0
2.194034375E0,-4.028180484E-1,6.777577098E-1,-1.317570645E0,1.535451170E0
2.204061375E0,-3.202853304E-1,6.186246718E-1,-1.431122988E0,1.591663339E0
2.214087375E0,-2.382063929E-1,4.712417275E-1,-1.534923930E0,1.623207479E0
2.224114375E0,-2.484480469E-1,3.022486436E-1,-1.509033043E0,1.558929569E0
2.234141375E0,-2.771120847E-1,2.071465315E-1,-1.444254665E0,1.485116941E0
2.244167375E0,-2.256862616E-1,8.111389115E-2,-1.367803490E0,1.388668477E0
2.254194375E0,-1.860249998E-1,-5.476465635E-2,-1.180946358E0,1.196761784E0
2.264221375E0,-1.726625772E-1,-1.416837363E-1,-1.086578729E0,1.109297066E0
2.274247375E0,-1.696140948E-1,-2.197163641E-1,-1.049633097E0,1.085713526E0
2.284274375E0,-2.475610974E-1,-1.884790032E-1,-8.742932260E-1,9.280083386E-1
2.294300375E0,-4.007553335E-1,-1.030834883E-2,-7.533231050E-1,8.533503383E-1
2.304327375E0,-5.342767587E-1,1.246959668E-1,-6.629280746E-1,8.605082052E-1
2.314354375E0,-6.388898787E-1,2.065217565E-1,-6.450993294E-1,9.311201092E-1
2.324380375E0,-7.294596677E-1,3.075758956E-1,-5.541453052E-1,9.663288041E-1
2.334407375E0,-8.117288225E-1,4.548943743E-1,-5.698754847E-1,1.091141898E0
2.344434375E0,-8.322058448E-1,6.072196776E-1,-5.444155383E-1,1.165191222E0
2.354460375E0,-8.078607432E-1,6.706091963E-1,-5.473075712E-1,1.184019110E0
2.364487375E0,-6.526741049E-1,6.812764911E-1,-4.943253654E-1,1.065119107E0
2.374513375E0,-4.537517187E-1,7.254447502E-1,-4.724579483E-1,9.774339982E-1
2.384540375E0,-3.123860344E-1,6.198947601E-1,-3.206542897E-1,7.646396024E-1
2.394567375E0,-2.684191023E-1,4.848596735E-1,1.051153958E-2,5.542997473E-1
2.404593375E0,-1.843961483E-1,3.667672596E-1,3.093147844E-1,5.139998036E-1
2.414620375E0,-1.447018497E-1,2.416811373E-1,5.841391826E-1,6.485113585E-1
2.424646375E0,-1.567114094E-1,1.195634271E-1,7.968480241E-1,8.208657945E-1
2.434673375E0,-1.546921100E-1,1.999776989E-2,1.018521817E0,1.030396162E0
2.444700375E0,-1.107826634E-1,-9.171262734E-2,1.114871067E0,1.124109203E0
2.454726375E0,-6.184724249E-2,-1.184736523E-1,1.226259940E0,1.233521191E0
2.464753375E0,-8.898837302E-2,5.018482469E-2,1.390521092E0,1.394269111E0
2.474779375E0,-9.149540327E-2,1.274741983E-1,1.537448173E0,1.545434555E0
2.484806375E0,-9.689106770E-2,-7.692670003E-2,1.760675570E0,1.765016731E0
2.494833375E0,-1.638242915E-1,-2.106795654E-1,2.080764434E0,2.097809550E0
2.504859375E0,-1.510793348E-1,-2.280681615E-1,2.345072615E0,2.360975566E0
2.514886375E0,-2.100225576E-1,-3.142328409E-1,2.867042447E0,2.891847877E0
2.524913375E0,-3.346263577E-1,-3.438348453E-1,3.162340286E0,3.198529863E0
2.534939375E0,-4.754297957E-1,-3.887717939E-1,3.278442600E0,3.335470413E0
2.544966375E0,-6.712678852E-1,-3.407475520E-1,3.223943626E0,3.310667904E0
2.554992375E0,-9.638874802E-1,3.306790486E-2,2.943776627E0,3.097740046E0
2.565019375E0,-1.296024532E0,5.356751204E-1,2.424606442E0,2.800954092E0
2.575046375E0,-1.509263570E0,9.684173182E-1,1.772527292E0,2.521420557E0
2.585072375E0,-1.492798249E0,1.278793080E0,1.155526757E0,2.280131672E0
2.595099375E0,-1.235838264E0,1.207835437E0,5.669542158E-1,1.818680769E0
2.605125375E0,-7.511859477E-1,6.517471750E-1,4.365238845E-2,9.954698585E-1
2.615152375E0,-1.457381225E-1,-6.228421222E-2,-8.143417239E-2,1.781865536E-1
2.625179375E0,5.580837703E-1,-9.048718250E-1,-8.696505368E-2,1.066683381E0
2.635205375E0,1.173194704E0,-1.667029488E0,-2.587626815E-2,2.038637464E0
2.645232375E0,1.707157321E0,-2.109205291E0,-2.457000017E-2,2.713620601E0
2.655258375E0,1.821071168E0,-2.337028016E0,-3.284907281E-2,2.962951098E0
2.665285375E0,1.459238593E0,-2.449956754E0,2.171012700E-2,2.851690147E0
2.675312375E0,9.767148826E-1,-2.449355075E0,-8.481971025E-3,2.636927035E0
2.685338375E0,5.779238116E-1,-2.362623033E0,-2.219696617E-1,2.442386959E0
2.695365375E0,3.550076319E-1,-1.932425982E0,-5.642919785E-1,2.044193247E0
2.705391375E0,1.963907976E-1,-1.329697770E0,-9.860609990E-1,1.667027834E0
2.715418375E0,2.037607744E-1,-1.092161212E0,-1.575461506E0,1.927800177E0
2.725445375E0,2.968578762E-1,-8.514181875E-1,-2.000340661E0,2.194174170E0
2.735471375E0,4.807499579E-1,-4.536123357E-1,-2.592203431E0,2.675145472E0
2.745498375E0,7.060523864E-1,-1.279230634E-1,-3.000805106E0,3.085402011E0
2.755524375E0,8.402122910E-1,1.197709850E-1,-3.242500935E0,3.351732999E0
2.765551375E0,8.916589449E-1,2.653785319E-1,-3.419468086E0,3.543761198E0
2.775577375E0,8.687246302E-1,3.010556288E-1,-3.453863162E0,3.574141536E0
2.785604375E0,7.336991914E-1,3.770147974E-1,-3.228821374E0,3.332527888E0
2.795631375E0,6.486097784E-1,4.129828481E-1,-2.955264067E0,3.053659310E0
2.805657375E0,6.413853242E-1,3.660430089E-1,-2.641227656E0,2.742525506E0
2.815684375E0,6.311477997E-1,3.202646824E-1,-2.314415663E0,2.420214221E0
2.825710375E0,5.318015593E-1,3.273008198E-1,-1.902323785E0,2.002192425E0
2.835737375E0,4.294402020E-1,4.098208566E-1,-1.508320268E0,1.620926294E0
2.845764375E0,2.802125343E-1,5.254210775E-1,-1.191652610E0,1.332149509E0
2.855790375E0,1.196564709E-1,5.708244147E-1,-8.157006168E-1,1.002759034E0
2.865817375E0,-6.786198087E-2,6.037533386E-1,-4.937669563E-1,7.828979176E-1
2.875843375E0,-2.917119610E-1,7.082042348E-1,-3.752842408E-1,8.529287003E-1
2.885870375E0,-5.281195676E-1,6.695109431E-1,-2.785835731E-1,8.970863881E-1
2.895897375E0,-7.747652833E-1,5.633972814E-1,-2.534732902E-1,9.909220200E-1
2.905923375E0,-9.331140959E-1,6.169995844E-1,-3.289918345E-1,1.166030030E0
2.915950375E0,-9.436189111E-1,7.396023211E-1,-3.842398363E-1,1.258995034E0
2.925976375E0,-9.866228434E-1,7.728322669E-1,-4.431856173E-1,1.329326085E0
2.936003375E0,-9.485534495E-1,8.951523639E-1,-4.958473957E-1,1.395319333E0
2.946030375E0,-7.755125575E-1,1.025191589E0,-5.720027018E-1,1.406991334E0
2.956056375E0,-4.701626238E-1,1.032600012E0,-5.871557611E-1,1.277523998E0
2.966083375E0,-1.053064536E-1,1.095132694E0,-4.864064813E-1,1.202911606E0
2.976109375E0,2.150465584E-1,1.162670447E0,-2.551064175E-1,1.209597815E0
2.986136375E0,4.095541871E-1,1.138867528E0,1.547763830E-1,1.220126882E0
2.996162375E0,5.455019510E-1,1.028138586E0,5.663069290E-1,1.294351138E0
3.006189375E0,5.257455980E-1,8.768181999E-1,9.593526721E-1,1.401990064E0
3.016216375E0,4.577717891E-1,7.604130001E-1,1.289505764E0,1.565441809E0
3.026242375E0,3.761923865E-1,6.044972506E-1,1.585031059E0,1.737602111E0
3.036269375E0,2.419509863E-1,4.220838931E-1,1.875254685E0,1.937337148E0
3.046295375E0,5.082480244E-2,1.757587144E-1,2.283493833E0,2.290811728E0
3.056322375E0,-1.334721990E-2,-6.268763356E-4,2.687950417E0,2.687983629E0
3.066349375E0,2.526665206E-1,-3.857505010E-2,2.741013315E0,2.752904357E0
3.076375375E0,5.846614120E-1,-2.715783164E-2,2.726438545E0,2.788554044E0
3.086402375E0,7.513012840E-1,7.762186088E-2,2.701078586E0,2.804693263E0
3.096428375E0,8.612672375E-1,1.570047204E-1,2.600218209E0,2.743641097E0
3.106455375E0,8.861930408E-1,2.448455408E-1,2.373212925E0,2.545078984E0
3.116481375E0,8.394878941E-1,4.517855559E-1,2.264340693E0,2.456845312E0
3.126508375E0,7.673777649E-1,5.670197046E-1,2.076065612E0,2.284825684E0
3.136535375E0,7.367012250E-1,6.038961934E-1,1.891142739E0,2.117508009E0
3.146561375E0,5.701565896E-1,5.801500293E-1,1.797751011E0,1.973210909E0
3.156588375E0,3.710569963E-1,4.622653744E-1,1.733601208E0,1.832142385E0
3.166614375E0,4.006383526E-1,3.698260843E-1,1.540039659E0,1.633708839E0
3.176641125E0,5.104142717E-1,3.064452633E-1,1.207459973E0,1.346250725E0
3.186667125E0,5.434644887E-1,2.321419897E-1,9.871333784E-1,1.150511130E0
3.196694125E0,5.507465380E-1,1.526733954E-1,8.634530729E-1,1.035462275E0
3.206721125E0,4.884903558E-1,2.836860728E-2,9.438382548E-1,1.063136048E0
3.216747125E0,4.005757874E-1,-9.295051944E-2,1.125015986E0,1.197815399E0
3.226774125E0,3.458194634E-1,-1.187846511E-1,1.186887714E0,1.241935320E0
3.236800125E0,2.327562397E-1,-8.184121169E-2,1.234338453E0,1.258755285E0
3.246827125E0,1.119604388E-1,2.454953492E-2,1.253691568E0,1.258920318E0
3.256854125E0,1.049399793E-1,1.419629043E-1,1.028293099E0,1.043337224E0
3.266880125E0,1.574629594E-1,2.506977266E-1,5.421737158E-1,6.177347908E-1
3.276907125E0,1.188375684E-1,3.840215890E-1,-7.541914165E-2,4.090024394E-1
3.286933125E0,-8.030522123E-2,4.618077566E-1,-6.765965259E-1,8.231027831E-1
3.296960125E0,-1.755860388E-1,4.349598274E-1,-1.189633566E0,1.278768365E0
3.306986125E0,-1.259346995E-1,3.999650092E-1,-1.712993866E0,1.763570112E0
3.317013125E0,-1.000131885E-1,2.818835223E-1,-2.128337966E0,2.149251836E0
3.327040125E0,2.837142125E-3,-9.423893513E-3,-2.379882259E0,2.379902609E0
3.337066125E0,2.099705174E-1,-3.086219624E-1,-2.485401113E0,2.513275517E0
3.347093125E0,4.119451135E-1,-5.790421647E-1,-2.567956781E0,2.664468171E0
3.357119125E0,5.910354618E-1,-9.143590786E-1,-2.663868075E0,2.877771458E0
3.367146125E0,6.248362420E-1,-1.223538281E0,-2.573416911E0,2.917180292E0
3.377172125E0,5.352736359E-1,-1.269585616E0,-2.371171662E0,2.742411448E0
3.387199125E0,4.931847929E-1,-1.286563883E0,-2.106520250E0,2.517122450E0
3.397226125E0,4.623423383E-1,-1.315317712E0,-1.940790862E0,2.389663218E0
3.407252125E0,4.786540235E-1,-1.236132672E0,-1.699298517E0,2.155168000E0
3.417279125E0,4.766654585E-1,-1.103095359E0,-1.471778678E0,1.900042581E0
3.427305125E0,4.766776646E-1,-1.075887826E0,-1.326768900E0,1.773435063E0
3.437332125E0,5.303901145E-1,-1.083219650E0,-1.151892128E0,1.667793140E0
3.447358125E0,5.081595853E-1,-1.021959395E0,-1.062594620E0,1.559401967E0
3.457385125E0,3.996740737E-1,-1.003040436E0,-9.648677659E-1,1.448032903E0
3.467412125E0,2.027154384E-1,-9.933439985E-1,-7.996880168E-1,1.291250081E0
3.477438125E0,3.284286015E-2,-9.517615975E-1,-6.685291225E-1,1.163554889E0
3.487465125E0,-1.204527155E-1,-9.540425232E-1,-4.988364923E-1,1.083302284E0
3.497491125E0,-1.270963950E-1,-9.675073452E-1,-2.661898148E-1,1.011474653E0
3.507518125E0,-1.518070938E-1,-9.652899349E-1,-5.095088303E-2,9.784814994E-1
3.517544125E0,-2.461439516E-1,-1.003406545E0,1.093341619E-1,1.038925165E0
3.527571125E0,-3.622980865E-1,-1.084588337E0,2.149056405E-1,1.163518886E0
3.537597125E0,-5.357471142E-1,-1.036513188E0,4.449684334E-1,1.248751963E0
3.547624125E0,-7.417250796E-1,-1.058262272E0,7.059466249E-1,1.472560955E0
3.557651125E0,-8.433963192E-1,-1.133839727E0,9.895903784E-1,1.725166367E0
3.567677125E0,-8.213917118E-1,-1.200590298E0,1.033830412E0,1.784630698E0
3.577704125E0,-6.747487327E-1,-1.255671874E0,1.132650695E0,1.820685394E0
3.587730125E0,-5.773108041E-1,-1.339338659E0,1.277371037E0,1.938760577E0
3.597757125E0,-5.277070465E-1,-1.513196553E0,1.566428728E0,2.240967982E0
3.607783125E0,-4.197924424E-1,-1.779290181E0,1.789076082E0,2.557907831E0
3.617810125E0,-3.207647290E-1,-1.994314959E0,1.903466915E0,2.775494274E0
3.627837125E0,-3.274407875E-1,-2.083336625E0,2.136425250E0,3.001969655E0
3.637863125E0,-3.937741600E-1,-2.082246119E0,2.237856899E0,3.082014032E0
3.647890125E0,-6.161178242E-1,-1.956397227E0,2.183607017E0,2.995868971E0
3.657916125E0,-9.344542046E-1,-1.688134282E0,2.065564013E0,2.826580391E0
3.667943125E0,-1.143103690E0,-1.258855390E0,1.687921590E0,2.395930348E0
3.677969125E0,-1.334851506E0,-6.813898540E-1,1.064174538E0,1.838093611E0
3.687996125E0,-1.534432763E0,-1.101396158E-1,5.850156802E-1,1.645860865E0
3.698022125E0,-1.628679501E0,2.175773795E-1,7.310247481E-2,1.644773785E0
3.708049125E0,-1.523613076E0,2.490226089E-1,-3.392671466E-1,1.580667979E0
3.718076125E0,-1.296542011E0,1.934419005E-1,-4.668335116E-1,1.391536734E0
3.728102125E0,-1.020854637E0,-1.025290992E-2,-3.011742908E-1,1.064403713E0
3.738129125E0,-6.163243771E-1,-3.486569709E-1,8.637506962E-3,7.081610182E-1
3.748155125E0,-1.609356207E-1,-6.869844700E-1,3.909389913E-1,8.066481457E-1
3.758182125E0,3.235268075E-1,-9.580513012E-1,7.969485962E-1,1.287501051E0
3.768208125E0,7.501952101E-1,-1.146435653E0,1.014790124E0,1.704965265E0
3.778235125E0,9.539855859E-1,-1.247289159E0,1.051998296E0,1.890110885E0
3.788261125E0,1.000364385E0,-1.223381721E0,9.669540524E-1,1.852671552E0
3.798288125E0,9.157844105E-1,-8.733382295E-1,6.295632774E-1,1.413411005E0
3.808315125E0,4.642640989E-1,-3.539080264E-1,1.998215783E-1,6.170256946E-1
3.818341125E0,9.748587571E-2,1.119518872E-2,-2.760710245E-1,2.929915337E-1
3.828368125E0,-8.281956051E-2,3.219142551E-1,-1.038443280E0,1.090345044E0
3.838394125E0,-1.190217557E-1,5.806098032E-1,-1.700104263E0,1.800452284E0
3.848421125E0,-4.856624231E-2,6.994478832E-1,-2.256780828E0,2.363185504E0
3.858447125E0,3.612280095E-2,7.054743160E-1,-2.649143617E0,2.741707637E0
3.868474125E0,1.591617765E-1,6.840474866E-1,-2.865392362E0,2.950207929E0
3.878500125E0,4.102715308E-1,6.800582968E-1,-3.165027081E0,3.263157741E0
3.888527125E0,5.467394776E-1,6.478333412E-1,-3.294635294E0,3.401945593E0
3.898554125E0,6.083327682E-1,5.984910272E-1,-3.274164192E0,3.383550121E0
3.908580125E0,5.550487000E-1,5.625980401E-1,-3.113945221E0,3.212670299E0
3.918607125E0,4.797718284E-1,5.118225005E-1,-2.863582065E0,2.948261440E0
3.928633125E0,4.898113515E-1,5.000858961E-1,-2.745282952E0,2.833121873E0
3.938660125E0,4.670839551E-1,6.879506493E-1,-2.460523549E0,2.597233077E0
3.948686125E0,3.777355764E-1,8.137896006E-1,-2.266977788E0,2.438057827E0
3.958713125E0,3.143021305E-1,8.342196259E-1,-2.031910948E0,2.218866898E0
3.968739125E0,1.146358323E-1,9.468663816E-1,-1.672071542E0,1.924972873E0
3.978766125E0,-7.602385338E-2,9.970793460E-1,-1.363326277E0,1.690741076E0
3.988793125E0,-1.938334447E-1,9.202779226E-1,-1.059518985E0,1.416708628E0
3.998819125E0,-3.042379577E-1,1.005406951E0,-7.202992004E-1,1.273669820E0
4.008846125E0,-3.813734947E-1,1.133917495E0,-5.126581407E-1,1.301550228E0
4.018872125E0,-4.128597642E-1,1.166041805E0,-2.474313623E-1,1.261478876E0
4.028899125E0,-3.828389896E-1,1.220488592E0,-1.917734706E-1,1.293419947E0
4.038925125E0,-3.607435311E-1,1.251772658E0,-1.789692378E-1,1.314952725E0
4.048952125E0,-3.550374892E-1,1.236478388E0,-2.287892693E-1,1.306627320E0
4.058978125E0,-4.280574817E-1,1.288554860E0,-2.601432091E-1,1.382490985E0
4.069005125E0,-4.294803286E-1,1.297898126E0,-1.765940988E-1,1.378469577E0
4.079032125E0,-3.768913481E-1,1.232073242E0,-8.503430307E-2,1.291232897E0
4.089058125E0,-2.768503487E-1,1.193891070E0,1.221611989E-1,1.231643358E0
4.099085125E0,-1.300731760E-1,1.135702869E0,5.113167894E-1,1.252271894E0
4.109111125E0,6.927874295E-2,9.899050317E-1,9.015734106E-1,1.340725972E0
4.119138125E0,2.436316405E-1,7.861403105E-1,1.335754316E0,1.568952694E0
4.129164125E0,3.453497858E-1,6.282774016E-1,1.752670147E0,1.893634498E0
4.139191125E0,4.918603255E-1,4.374058639E-1,2.077231547E0,2.179023031E0
4.149217125E0,5.693228497E-1,2.154000226E-1,2.293879073E0,2.373269238E0
4.159244125E0,5.371120005E-1,-2.366958378E-2,2.481590483E0,2.539161451E0
4.169271125E0,5.067178081E-1,-1.836115981E-1,2.544308302E0,2.600765444E0
4.179297083E0,5.220248685E-1,-1.907185598E-1,2.691397936E0,2.748182378E0
4.189324083E0,6.093111901E-1,-1.183821434E-1,2.799262692E0,2.867254101E0
4.199350083E0,7.082328862E-1,-1.905243592E-1,2.847001700E0,2.939951025E0
4.209377083E0,7.833215140E-1,-3.013578933E-1,2.838554812E0,2.960034222E0
4.219403083E0,8.410218380E-1,-1.386507490E-1,2.723583934E0,2.853848491E0
4.229430083E0,8.976296099E-1,2.179120595E-1,2.505423149E0,2.670275217E0
4.239457083E0,9.251711650E-1,5.059793779E-1,2.144881493E0,2.390078123E0
4.249483083E0,7.927234713E-1,7.370245761E-1,1.726086951E0,2.037398314E0
4.259510083E0,6.612877113E-1,8.221663948E-1,1.296886119E0,1.671876976E0
4.269536083E0,5.992794146E-1,7.585939313E-1,9.472629690E-1,1.353479849E0
4.279563083E0,5.631018508E-1,6.305092107E-1,7.533739758E-1,1.132341780E0
4.289589083E0,6.393306126E-1,4.106634404E-1,6.023976982E-1,9.696757604E-1
4.299616083E0,7.242282370E-1,1.176497065E-1,5.477718401E-1,9.156429334E-1
4.309642083E0,8.190501943E-1,-2.216540217E-1,6.956701434E-1,1.097237747E0
4.319669083E0,8.087777328E-1,-5.827090633E-1,8.071239209E-1,1.282622430E0
4.329696083E0,7.884998082E-1,-8.772130331E-1,1.015632707E0,1.556516768E0
4.339722083E0,7.214389689E-1,-1.033018234E0,1.163890030E0,1.715296143E0
4.349749083E0,5.351938214E-1,-9.758585579E-1,1.232246904E0,1.660471254E0
4.359775083E0,3.531076522E-1,-7.159676562E-1,1.118564753E0,1.374220435E0
4.369802083E0,1.951684371E-1,-4.099086014E-1,8.075864357E-1,9.264510950E-1
4.379828083E0,1.656031058E-2,-6.459017135E-2,3.517410117E-1,3.580054098E-1
4.389855083E0,-1.352832187E-1,3.556123801E-1,-1.636068481E-1,4.141604942E-1
4.399882083E0,-2.366936268E-1,6.823384917E-1,-7.033469528E-1,1.008120343E0
4.409908083E0,-2.385615199E-1,8.017883366E-1,-1.205411693E0,1.467240091E0
4.419935083E0,-1.696148257E-1,8.154452397E-1,-1.646792859E0,1.845439473E0
4.429961083E0,-1.080252992E-1,8.203900838E-1,-1.958805549E0,2.126412127E0
4.439988083E0,-2.263655436E-2,6.898772337E-1,-2.222206827E0,2.326939233E0
4.450015083E0,1.064551482E-1,4.675046258E-1,-2.397344969E0,2.444822319E0
4.460041083E0,1.661029331E-1,2.550836865E-1,-2.456816415E0,2.475601900E0
4.470068083E0,1.908039292E-1,4.589508802E-2,-2.533896750E0,2.541484849E0
4.480094083E0,1.816019467E-1,-1.976604839E-1,-2.510030755E0,2.524342157E0
4.490121083E0,2.067525205E-1,-3.506604097E-1,-2.429434488E0,2.463302917E0
4.500147083E0,1.844552600E-1,-3.857742188E-1,-2.324349498E0,2.363354836E0
4.510174083E0,1.439113976E-1,-3.640139519E-1,-2.181617795E0,2.216455019E0
4.520201083E0,1.935966964E-2,-3.743263207E-1,-2.014073431E0,2.048654871E0
4.530227083E0,-1.515204341E-1,-3.515753163E-1,-1.796696758E0,1.837030997E0
4.540254083E0,-3.584340271E-1,-2.917587935E-1,-1.550903201E0,1.618301234E0
4.550280083E0,-5.221429823E-1,-2.226206030E-1,-1.337944098E0,1.453371128E0
4.560307083E0,-5.989662231E-1,-1.629400828E-1,-1.123416188E0,1.283500658E0
4.570334083E0,-5.965163494E-1,-1.158861680E-1,-1.019301835E0,1.186691868E0
4.580360083E0,-5.842073757E-1,2.073476574E-2,-8.591910374E-1,1.039200379E0
4.590387083E0,-5.991364867E-1,1.107620154E-1,-7.143695390E-1,9.389124518E-1
4.600413083E0,-5.118557199E-1,6.825643038E-2,-6.191505557E-1,8.062274053E-1
4.610440083E0,-5.740848953E-1,2.488545746E-2,-5.090743822E-1,7.676910053E-1
4.620467083E0,-6.017811824E-1,-1.358794246E-1,-4.622381848E-1,7.708877668E-1
4.630493083E0,-6.105105637E-1,-2.942017054E-1,-2.655448669E-1,7.278680294E-1
4.640520083E0,-6.278261427E-1,-3.822891686E-1,-4.358514547E-2,7.363493320E-1
4.650546083E0,-6.509920071E-1,-4.312798823E-1,2.887606519E-1,8.325717052E-1
4.660573083E0,-6.843487644E-1,-4.458620341E-1,6.567949301E-1,1.048096258E0
4.670599083E0,-6.666050962E-1,-5.556957675E-1,9.677516127E-1,1.299885889E0
4.680626083E0,-5.949683721E-1,-6.650074176E-1,1.306902984E0,1.582472003E0
4.690653083E0,-5.326636947E-1,-6.583127942E-1,1.630706584E0,1.837473894E0
4.700679083E0,-5.392171078E-1,-6.173562645E-1,1.918550393E0,2.086317200E0
4.710706083E0,-5.927093369E-1,-7.875961210E-1,2.283393846E0,2.487066437E0
4.720732083E0,-5.935885023E-1,-1.232984092E0,2.784100862E0,3.102227376E0
4.730759083E0,-5.226762849E-1,-1.631886114E0,3.242028480E0,3.667013969E0
4.740786083E0,-3.533002814E-1,-1.900656451E0,3.535301428E0,4.029351340E0
4.750812083E0,-2.799313198E-1,-1.903663820E0,3.712268579E0,4.181295910E0
4.760839083E0,-3.687915291E-1,-1.624508682E0,3.556525066E0,3.927328125E0
4.770865083E0,-5.035477401E-1,-1.107014602E0,2.930630332E0,3.172953797E0
4.780892083E0,-8.604373714E-1,-2.447575767E-1,2.176447687E0,2.353122027E0
4.790919083E0,-1.147526158E0,6.158652976E-1,1.340280645E0,1.868812071E0
4.800945083E0,-1.239859102E0,1.096811357E0,5.729470271E-1,1.751717455E0
4.810972083E0,-1.068366333E0,1.286365224E0,1.566510004E-1,1.679488508E0
4.820998083E0,-5.296564351E-1,1.268207281E0,-7.045602500E-2,1.376172118E0
4.831025083E0,-7.179549420E-2,7.388159437E-1,5.170049608E-2,7.440944382E-1
4.841052083E0,5.902229546E-1,-2.629266299E-1,5.874288261E-2,6.488021849E-1
4.851078083E0,1.198951689E0,-1.020353822E0,2.096986949E-1,1.588263397E0
4.861105083E0,1.817801405E0,-1.508683965E0,4.045799607E-1,2.396709035E0
4.871131083E0,2.267666151E0,-1.796223279E0,5.993700099E-1,2.954314176E0
4.881158083E0,2.342870992E0,-1.689516125E0,5.420795757E-1,2.938938497E0
4.891184083E0,2.292315235E0,-1.414266342E0,3.029787415E-1,2.710471276E0
4.901211083E0,1.910628878E0,-1.281091328E0,2.517811060E-2,2.300506821E0
4.911238083E0,1.402561094E0,-9.430321430E-1,-2.517331588E-1,1.708758856E0
4.921264083E0,1.014289894E0,-3.672959941E-1,-5.980806988E-1,1.233446740E0
4.931291083E0,6.799787747E-1,-2.188095706E-2,-1.082165251E0,1.278253316E0
4.941317083E0,4.019665477E-1,1.449553814E-1,-1.508958199E0,1.568293345E0
4.951344083E0,2.744743875E-1,4.940987493E-1,-1.802939830E0,1.889460715E0
4.961371083E0,3.062307436E-1,6.660867405E-1,-2.166644830E0,2.287312535E0
4.971397083E0,5.078995304E-1,6.445574386E-1,-2.462540254E0,2.595673463E0
4.981424083E0,6.661165613E-1,5.777610763E-1,-2.679063234E0,2.820443041E0
4.991450083E0,7.271104757E-1,4.296729578E-1,-2.828274238E0,2.951684884E0
5.001477083E0,7.509003843E-1,3.529165214E-1,-2.841433396E0,2.960092094E0
5.011504083E0,7.165149555E-1,3.176285018E-1,-2.842006423E0,2.948098041E0
5.021530083E0,6.912375154E-1,1.966985073E-1,-2.782278870E0,2.873599714E0
5.031557083E0,7.304084516E-1,1.414610670E-1,-2.646821102E0,2.749394422E0
5.041583083E0,7.041288717E-1,7.892144110E-2,-2.550427414E0,2.647018333E0
5.051610083E0,5.137121744E-1,3.711070631E-2,-2.457019313E0,2.510422536E0
5.061636083E0,1.936592525E-1,2.250072902E-1,-2.117694864E0,2.138402142E0
5.071663083E0,-5.628270317E-2,3.951295811E-1,-1.893602078E0,1.935206438E0
5.081690083E0,-2.008366184E-1,4.285216045E-1,-1.717984464E0,1.781975514E0
5.091716083E0,-2.669666174E-1,4.608427833E-1,-1.502526847E0,1.594124892E0
5.101743083E0,-2.881388006E-1,3.659064398E-1,-1.259416577E0,1.342773847E0
5.111769083E0,-2.861971230E-1,7.863719333E-2,-1.054369342E0,1.095348032E0
5.121796083E0,-2.109622052E-1,-6.231501974E-2,-9.746542507E-1,9.991692160E-1
5.131823083E0,-1.339120192E-1,-1.338774841E-2,-9.659728897E-1,9.753026629E-1
5.141849083E0,-7.274495412E-2,7.717586450E-2,-8.097838193E-1,8.166993183E-1
5.151876083E0,-8.606626354E-3,2.296578732E-1,-6.453624541E-1,6.850616832E-1
5.161902083E0,-2.098010212E-2,4.370916492E-1,-5.182381386E-1,6.782772609E-1
5.171929083E0,-2.848167781E-2,5.342977356E-1,-3.409768724E-1,6.344686783E-1
5.181954583E0,-1.016348041E-1,4.818020182E-1,-7.109571040E-2,4.975112242E-1
5.191981583E0,-1.382438924E-1,4.770568565E-1,3.812156564E-1,6.261150013E-1
5.202008583E0,-1.672636237E-1,4.431032812E-1,8.586507547E-1,9.806114196E-1
5.212034583E0,-1.574151949E-1,2.641986552E-1,1.265378982E0,1.302215206E0
5.222061583E0,-1.536922727E-1,9.962723572E-3,1.569128972E0,1.576669369E0
5.232087583E0,-2.353524034E-1,-1.999496688E-1,1.847223718E0,1.872860402E0
5.242114583E0,-3.726328940E-1,-2.559000492E-1,2.058277212E0,2.107331296E0
5.252141583E0,-5.385988378E-1,-1.850613604E-1,2.238128795E0,2.309449484E0
5.262167583E0,-5.806306705E-1,-3.951340762E-1,2.552843483E0,2.647691969E0
5.272194583E0,-4.451340923E-1,-6.657239939E-1,2.538806657E0,2.662117961E0
5.282220583E0,-2.026083612E-1,-5.552195118E-1,2.249181202E0,2.325539708E0
5.292247583E0,-1.178526232E-1,-4.915244760E-1,2.201883075E0,2.259153520E0
5.302273583E0,-1.813320246E-1,-5.726844871E-1,2.143910855E0,2.226477617E0
5.312300583E0,-2.280675219E-1,-4.978300403E-1,1.987351071E0,2.061410639E0
5.322327583E0,-2.608813653E-1,-3.186027941E-1,1.920659484E0,1.964306412E0
5.332353583E0,-3.176397577E-1,-1.025046414E-1,1.793374954E0,1.824169933E0
5.342380583E0,-3.874438547E-1,1.034052497E-1,1.701841471E0,1.748447820E0
5.352406583E0,-4.508601975E-1,2.480438581E-1,1.721381696E0,1.796651223E0
5.362433583E0,-5.560598297E-1,2.381429688E-1,1.627111716E0,1.735916802E0
5.372460583E0,-5.831522822E-1,1.530093088E-1,1.566512927E0,1.678523513E0
5.382486583E0,-4.301580574E-1,-2.768231775E-3,1.411345366E0,1.475445478E0
5.392513583E0,-2.224857881E-1,-1.695227868E-1,1.248145484E0,1.279103221E0
5.402539583E0,-1.262422630E-1,-3.482830415E-1,1.120317748E0,1.179978832E0
5.412566583E0,-8.663384546E-2,-4.810590564E-1,1.104240244E0,1.207588405E0
5.422592583E0,-7.648943793E-3,-5.633831019E-1,1.208292031E0,1.333202407E0
5.432619583E0,6.504203321E-2,-6.287483217E-1,1.289756024E0,1.436323613E0
5.442646583E0,1.100685356E-1,-6.617165315E-1,1.259804832E0,1.427267342E0
5.452672583E0,9.670571096E-2,-6.115755975E-1,1.107548014E0,1.268873244E0
5.462699583E0,2.949434247E-2,-5.272992397E-1,8.717660594E-1,1.019259764E0
5.472725583E0,-1.120901008E-1,-3.653077946E-1,4.842605531E-1,6.168648627E-1
5.482752583E0,-3.120417796E-1,-6.142577701E-2,1.354618603E-1,3.456777602E-1
5.492778583E0,-4.542026852E-1,2.174287871E-1,-4.110604298E-1,6.500354096E-1
5.502805583E0,-3.893124421E-1,3.621813980E-1,-1.239688656E0,1.348913454E0
5.512832583E0,-1.662525305E-1,5.030052647E-1,-1.701397668E0,1.781967515E0
5.522858583E0,5.145365221E-2,5.942715668E-1,-2.240664148E0,2.318702654E0
5.532885583E0,2.300978031E-1,4.563642181E-1,-2.788154737E0,2.834611108E0
5.542911583E0,3.087095976E-1,2.641317045E-1,-2.995534426E0,3.022961077E0
5.552938583E0,3.258943451E-1,9.486904571E-2,-3.208569542E0,3.226472651E0
5.562965583E0,2.324913243E-1,-8.493223261E-2,-3.164272791E0,3.173938877E0
5.572991583E0,5.972039089E-2,-1.375560040E-1,-2.980709980E0,2.984479882E0
5.583018583E0,9.653001127E-2,-3.747374531E-1,-2.661775941E0,2.689757863E0
5.593044583E0,1.450852078E-1,-5.860484447E-1,-2.455329468E0,2.528466985E0
5.603071583E0,1.071777636E-1,-8.169771371E-1,-2.219791927E0,2.367786923E0
5.613097583E0,2.069141412E-2,-1.030924638E0,-2.024137659E0,2.271644120E0
5.623124583E0,3.328315549E-2,-1.085970546E0,-1.834398435E0,2.132007836E0
5.633151583E0,1.356738584E-2,-1.079019083E0,-1.810849358E0,2.107994700E0
5.643177583E0,-5.015332282E-2,-1.011263960E0,-1.716043773E0,1.992479959E0
5.653204583E0,-8.032000372E-2,-9.429918703E-1,-1.578317286E0,1.840318023E0
5.663230583E0,-8.086620675E-2,-8.309114905E-1,-1.426093798E0,1.652482002E0
5.673257583E0,-5.224400391E-2,-6.065571150E-1,-1.353353850E0,1.483983697E0
5.683283583E0,-1.187399747E-1,-3.819130100E-1,-1.212068163E0,1.276348683E0
5.693310583E0,-2.418690705E-1,-1.608261864E-1,-9.794390273E-1,1.021599979E0
5.703337583E0,-3.707721638E-1,3.105876502E-3,-8.500980324E-1,9.274418087E-1
5.713363583E0,-4.339641928E-1,-6.301058259E-2,-5.975404161E-1,7.411813564E-1
5.723390583E0,-3.957395919E-1,-1.232080880E-1,-3.409113836E-1,5.366662175E-1
5.733416583E0,-3.539779372E-1,-2.333808320E-1,-7.340945363E-2,4.302975025E-1
5.743443583E0,-4.029406207E-1,-4.387627834E-1,2.811317897E-1,6.587176991E-1
5.753470583E0,-5.150751238E-1,-6.007184144E-1,7.322175801E-1,1.078103697E0
5.763496583E0,-5.812574554E-1,-6.003432059E-1,1.198341240E0,1.460922284E0
5.773523583E0,-6.308151662E-1,-5.219097514E-1,1.581490570E0,1.780850916E0
5.783549583E0,-6.027479464E-1,-3.321995439E-1,1.812981838E0,1.939217566E0
5.793576583E0,-4.920870147E-1,-2.329748525E-1,1.957519162E0,2.031823856E0
5.803602583E0,-4.107466171E-1,-3.499734715E-1,2.148379297E0,2.215113500E0
5.813629583E0,-4.051913236E-1,-5.670353824E-1,2.510279846E0,2.605228213E0
5.823656583E0,-3.452736623E-1,-8.110646519E-1,2.865704604E0,2.998216578E0
5.833682583E0,-2.066011690E-1,-1.065324977E0,3.010529611E0,3.200139042E0
5.843709583E0,-1.094097737E-1,-1.149817097E0,3.024526675E0,3.237562581E0
5.853735583E0,-6.485358842E-2,-9.108523571E-1,2.825126681E0,2.969040042E0
5.863762583E0,-1.387721518E-1,-4.638422953E-1,2.288091499E0,2.338753961E0
5.873789583E0,-3.251425394E-1,8.106478368E-2,1.657435961E0,1.690971063E0
5.883815583E0,-4.774803046E-1,6.004095718E-1,8.847468781E-1,1.171006462E0
5.893842583E0,-5.990857987E-1,9.037035513E-1,3.494635212E-1,1.139170161E0
5.903868583E0,-6.461353098E-1,9.674558897E-1,-4.787349343E-2,1.164368330E0
5.913895583E0,-6.628455558E-1,9.133896833E-1,-2.300592846E-1,1.151769169E0
5.923921583E0,-6.058207678E-1,6.570262606E-1,-1.596307415E-1,9.078459580E-1
5.933948583E0,-3.388511903E-1,3.048101443E-1,-4.168480039E-3,4.557924192E-1
5.943975583E0,7.345568318E-2,-5.063657692E-2,3.212869585E-1,3.334443132E-1
5.954001583E0,4.029551657E-1,-4.855671865E-1,6.212345034E-1,8.854832954E-1
5.964028583E0,6.128249282E-1,-4.145584535E-1,1.008430692E0,1.250738008E0
5.974054583E0,7.336656430E-1,-3.185924884E-1,1.383558812E0,1.598124349E0
5.984081583E0,6.616753817E-1,-5.516200754E-1,1.515406508E0,1.743145405E0
5.994107583E0,5.195835829E-1,-5.934173251E-1,1.473151605E0,1.671013726E0
6.004134583E0,4.656834374E-1,-2.483539798E-1,1.097786087E0,1.218062009E0
6.014161583E0,4.523624568E-1,2.171349645E-1,6.278278238E-1,8.037083809E-1
6.024187583E0,2.619839857E-1,6.101141590E-1,4.242154956E-3,6.639976594E-1
6.034214583E0,1.243317036E-1,9.759752829E-1,-7.315281934E-1,1.226017791E0
6.044240583E0,2.424780945E-1,1.386304665E0,-1.314672180E0,1.925876214E0
6.054267583E0,3.206270636E-1,1.627637966E0,-1.622453240E0,2.320422715E0
6.064293583E0,2.900637040E-1,1.578362748E0,-1.953786884E0,2.528368863E0
6.074320583E0,2.791781618E-1,1.448056524E0,-2.528957607E0,2.927530482E0
6.084347583E0,6.894579884E-1,1.127494767E0,-2.209434169E0,2.574528328E0
6.094373583E0,1.129808656E0,7.904270504E-1,-2.568155002E0,2.914903538E0
6.104400583E0,1.503619837E0,3.732110009E-1,-2.839574566E0,3.234709073E0
6.114426583E0,1.484345807E0,1.443992929E-1,-2.678985466E0,3.066120800E0
6.124453583E0,1.100262383E0,2.342262114E-1,-2.629595205E0,2.860106672E0
6.134479583E0,7.565827815E-1,4.288809524E-1,-2.439794585E0,2.590164858E0
6.144506583E0,3.902797908E-1,4.315504622E-1,-1.990458282E0,2.073759457E0
6.154533583E0,3.257936634E-1,4.241070297E-1,-1.810761065E0,1.888084723E0
6.164559583E0,6.795743667E-1,5.873249284E-1,-1.682194242E0,1.906973875E0
6.174586583E0,9.406149772E-1,6.941533756E-1,-1.700004861E0,2.063158252E0
6.184612958E0,9.656647414E-1,7.400383041E-1,-1.507465405E0,1.937167270E0
6.194639958E0,7.996167538E-1,9.976892106E-1,-1.030519719E0,1.642175875E0
6.204665958E0,4.367610622E-1,1.151632804E0,-7.486944491E-1,1.441374940E0
6.214692958E0,4.744591579E-2,1.094094521E0,-5.001474380E-1,1.203927488E0
6.224719958E0,-2.226405932E-1,9.854082305E-1,-3.360505933E-1,1.064672821E0
6.234745958E0,-3.618212461E-1,8.773183561E-1,-1.998174852E-1,9.698088159E-1
6.244772958E0,-3.879776689E-1,6.757268988E-1,-1.614889866E-1,7.957463202E-1
6.254798958E0,-3.323949506E-1,5.318366060E-1,-1.059708434E-1,6.360553422E-1
6.264825958E0,-1.846158574E-1,4.836491902E-1,-8.600844920E-2,5.247828192E-1
6.274851958E0,4.880195819E-3,4.393583954E-1,1.039658332E-1,4.515180067E-1
6.284878958E0,1.354579500E-1,5.755251376E-1,3.281755632E-1,6.762227743E-1
6.294905958E0,-3.928466454E-2,8.162195572E-1,5.837579441E-1,1.004256435E0
6.304931958E0,-3.505566217E-1,6.963741481E-1,8.409108871E-1,1.146716189E0
6.314958958E0,-6.772115799E-1,4.746069463E-1,1.211174709E0,1.466564507E0
6.324984958E0,-8.787460269E-1,2.433092031E-1,1.644801883E0,1.880629464E0
6.335011958E0,-9.626417309E-1,-1.580157040E-1,1.986459956E0,2.213068282E0
6.345037958E0,-1.027571991E0,-6.471752371E-1,2.484062685E0,2.765014902E0
6.355064958E0,-8.880231462E-1,-1.044853071E0,2.943039293E0,3.246811256E0
6.365091958E0,-5.052660906E-1,-1.173979985E0,3.178591452E0,3.425925634E0
6.375117958E0,-1.648673251E-1,-1.362771376E0,3.242273478E0,3.520889712E0
6.385144958E0,-3.753737032E-2,-1.442655597E0,3.066351224E0,3.388978321E0
6.395170958E0,-4.979854301E-2,-9.734948941E-1,2.841732774E0,3.004266526E0
6.405197958E0,-1.287971674E-1,-4.551387148E-1,2.492705455E0,2.537187507E0
6.415223958E0,-2.400323321E-1,-2.115079514E-1,1.993501173E0,2.019009178E0
6.425250958E0,-3.001612789E-1,-9.101922065E-3,1.602956284E0,1.630842876E0
6.435276958E0,-3.530701569E-1,1.240401285E-1,1.301202534E0,1.353947016E0
6.445303958E0,-4.128748208E-1,-2.794420905E-3,1.071399942E0,1.148203493E0
6.455330958E0,-4.308345437E-1,-2.813656418E-1,9.552719003E-1,1.085048124E0
6.465356958E0,-3.286235330E-1,-5.120436348E-1,8.259981483E-1,1.025892320E0
6.475383958E0,-1.339376008E-1,-7.182392994E-1,6.833003587E-1,1.000353114E0
6.485409958E0,-5.567733362E-2,-8.791580363E-1,7.087415940E-1,1.130634099E0
6.495436958E0,-3.643005386E-2,-9.468713517E-1,7.332677400E-1,1.198154449E0
6.505462958E0,6.163018288E-2,-8.906438682E-1,8.012486386E-1,1.199601667E0
6.515489958E0,1.390043594E-1,-7.054583824E-1,8.875377542E-1,1.142242096E0
6.525516958E0,1.725985136E-1,-5.353190980E-1,8.134155250E-1,9.889396341E-1
6.535542958E0,6.859767023E-2,-3.313297706E-1,7.292501181E-1,8.039221306E-1
6.545569958E0,-1.668219762E-1,-5.522344351E-2,6.626690429E-1,6.855723601E-1
6.555595958E0,-3.577452982E-1,2.151315257E-1,4.044729567E-1,5.812586726E-1
6.565622958E0,-4.645340209E-1,4.131389688E-1,1.463142926E-1,6.386576049E-1
6.575648958E0,-4.825501695E-1,5.303387321E-1,-3.034248841E-1,7.785759417E-1
6.585675958E0,-4.637917169E-1,4.278792878E-1,-7.854997480E-1,1.007568010E0
6.595702958E0,-3.253536604E-1,4.156864179E-1,-1.339350938E0,1.439621873E0
6.605728958E0,-6.319999583E-2,4.814914580E-1,-1.782820730E0,1.847776507E0
6.615755958E0,1.579487899E-1,4.288246730E-1,-2.168559208E0,2.216187596E0
6.625781958E0,3.458435100E-1,3.040551043E-1,-2.566248810E0,2.607238039E0
6.635808958E0,5.431079913E-1,1.707974981E-1,-2.872320728E0,2.928201571E0
6.645834958E0,7.053755712E-1,1.159788647E-1,-3.090123079E0,3.171729251E0
6.655861958E0,6.804597082E-1,9.852668010E-2,-3.032570690E0,3.109536607E0
6.665887958E0,3.141317207E-1,-1.044966142E-1,-2.786157328E0,2.805756749E0
6.675914958E0,-1.158864147E-1,-4.981425740E-1,-2.543955131E0,2.594857104E0
6.685941958E0,-3.859677617E-1,-8.105805755E-1,-1.976395728E0,2.170749192E0
6.695967958E0,-4.184380811E-1,-1.070186060E0,-1.725333830E0,2.072960553E0
6.705994958E0,-6.163769290E-3,-1.137902957E0,-1.656389310E0,2.009598636E0
6.716020958E0,4.736617804E-1,-9.801342613E-1,-1.344026372E0,1.729573803E0
6.726047958E0,6.999770562E-1,-1.051412843E0,-1.018025973E0,1.622286574E0
6.736073958E0,6.624260180E-1,-1.077503777E0,-9.265018451E-1,1.567873811E0
6.746100958E0,5.637781544E-1,-7.692814721E-1,-1.203231851E0,1.535384863E0
6.756126958E0,4.458256352E-1,-5.422108822E-1,-1.365614877E0,1.535466421E0
6.766153958E0,2.471800234E-1,-5.589906735E-1,-1.022459916E0,1.191214850E0
6.776180958E0,1.680455974E-1,-6.669220152E-1,-8.469721109E-1,1.091048145E0
6.786206958E0,2.083088301E-1,-8.790027197E-1,-6.332487774E-1,1.103196430E0
6.796233958E0,2.468655345E-1,-9.234811004E-1,4.222332895E-2,9.568399785E-1
6.806259958E0,2.369157296E-1,-9.795862310E-1,5.623121113E-1,1.154085420E0
6.816286958E0,3.124711845E-1,-1.134389950E0,1.101233021E0,1.611580890E0
6.826312958E0,3.562931422E-1,-1.020128047E0,1.498536707E0,1.847489728E0
6.836339958E0,1.648768999E-1,-8.975115692E-1,1.748030382E0,1.971882761E0
6.846366958E0,-2.957533737E-1,-6.940016404E-1,1.975792880E0,2.114915090E0
6.856392958E0,-3.666220659E-1,-4.373582822E-1,1.933118731E0,2.015599671E0
6.866419958E0,-2.425057409E-1,-2.940527293E-1,1.590764254E0,1.635789398E0
6.876445958E0,-2.830944990E-1,-1.197621228E-1,1.372631536E0,1.406628165E0
6.886472958E0,-1.613061698E-1,7.471901067E-2,1.418125212E0,1.429224170E0
6.896498958E0,-1.145280425E-2,6.693393638E-2,1.445681970E0,1.447275951E0
6.906525958E0,7.891646183E-2,-9.335638929E-2,1.456864770E0,1.461984330E0
6.916551958E0,1.803072635E-1,-1.611239924E-1,1.296141769E0,1.318504886E0
6.926578958E0,1.807885441E-1,-2.120318436E-1,1.113271853E0,1.147613271E0
6.936605958E0,-3.274173073E-2,-2.716366058E-1,1.115279202E0,1.148349322E0
6.946631958E0,-3.191614956E-1,-2.789859346E-1,9.700676948E-1,1.058644673E0
6.956658958E0,-6.215522265E-1,-1.670988784E-1,9.300247926E-1,1.131015172E0
6.966684958E0,-9.929889263E-1,-1.922177677E-1,7.741216511E-1,1.273671468E0
6.976711958E0,-1.166700494E0,-2.551042796E-1,5.097842342E-1,1.298517694E0
6.986737958E0,-1.146530670E0,-2.632588797E-1,2.874274868E-1,1.210971665E0
6.996764958E0,-1.122633246E0,-5.204475821E-1,1.907531315E-1,1.252021504E0
7.006790958E0,-1.144007962E0,-8.860206941E-1,1.835429299E-1,1.458586608E0
7.016817958E0,-1.148266708E0,-1.168989898E0,4.395737922E-1,1.696549125E0
7.026844958E0,-9.461020774E-1,-1.389196405E0,6.827659231E-1,1.814151344E0
7.036870958E0,-7.127002320E-1,-1.590952096E0,9.994370896E-1,2.009463781E0
7.046897958E0,-4.686940591E-1,-1.664281589E0,1.100037850E0,2.049290268E0
7.056923958E0,-1.844701887E-1,-1.442055527E0,9.571558732E-1,1.740603562E0
7.066950958E0,-1.285477288E-1,-1.151907331E0,7.847799557E-1,1.399748047E0
7.076976958E0,-1.920037048E-1,-9.250325129E-1,5.286058366E-1,1.082577805E0
7.087003958E0,-2.274317286E-1,-6.167214762E-1,6.037600994E-2,6.600877464E-1
7.097030958E0,-1.950084427E-1,-3.049823631E-1,-3.940520489E-1,5.350883588E-1
7.107056958E0,-6.991804005E-2,-1.161984276E-2,-8.291006809E-1,8.321246855E-1
7.117083958E0,8.878156431E-2,2.955205083E-1,-1.358052088E0,1.392666511E0
7.127109958E0,1.697886707E-1,5.450723268E-1,-1.691395420E0,1.785147193E0
7.137136958E0,2.290239619E-1,7.398382562E-1,-2.036788110E0,2.179063658E0
7.147162958E0,1.591547416E-1,9.315748894E-1,-2.330994859E0,2.515293032E0
7.157189958E0,7.138379083E-2,1.057603291E0,-2.520182691E0,2.734033862E0
7.167215958E0,-1.928212551E-2,9.272275577E-1,-2.798166924E0,2.947856998E0
7.177242958E0,-1.291464106E-1,6.489240662E-1,-2.832306477E0,2.908563429E0
7.187273083E0,-2.613702656E-2,5.846649569E-1,-3.192094427E0,3.245301695E0
7.197300083E0,1.294817849E-1,7.141485874E-1,-3.143573062E0,3.226271119E0
7.207327083E0,1.028178146E-1,6.008056841E-1,-2.971302395E0,3.033179338E0
7.217353083E0,1.779575964E-1,6.014924395E-1,-2.847628521E0,2.915896133E0
7.227380083E0,6.963207923E-2,6.299668814E-1,-2.327679487E0,2.412425894E0
7.237406083E0,-1.852998172E-2,4.666221713E-1,-2.061105511E0,2.113346999E0
7.247433083E0,1.744768220E-1,2.555466398E-1,-2.050653613E0,2.073867519E0
7.257459083E0,4.028824409E-1,1.937072545E-1,-1.985468268E0,2.035171001E0
7.267486083E0,5.156188418E-1,3.412247944E-1,-1.689759369E0,1.799328730E0
7.277512083E0,5.305819032E-1,6.082382626E-1,-1.117328652E0,1.378366517E0
7.287539083E0,4.306315357E-1,7.137991431E-1,-7.046058583E-1,1.091522859E0
7.297566083E0,2.653246462E-1,6.991561802E-1,-6.667650175E-1,1.001894266E0
7.307592083E0,2.647451140E-2,9.038067546E-1,-3.208875936E-1,9.594458803E-1
7.317619083E0,-2.627754794E-1,1.024124399E0,-1.728764391E-1,1.071339349E0
7.327645083E0,-4.146532515E-1,1.066173408E0,-1.390076119E-1,1.152382823E0
7.337672083E0,-2.879870653E-1,1.036442875E0,-2.271526337E-2,1.075949054E0
7.347698083E0,-4.868983783E-2,7.984875834E-1,2.611448371E-1,8.415163380E-1
7.357725083E0,2.713657701E-1,5.682749191E-1,4.973887217E-1,8.024782273E-1
7.367751083E0,4.646690916E-1,3.043440298E-1,9.422267622E-1,1.093770508E0
7.377778083E0,4.739175595E-1,1.332683870E-1,1.278675551E0,1.370171333E0
7.387804083E0,4.901736961E-1,1.315152821E-1,1.515187823E0,1.597923859E0
7.397831083E0,4.589588470E-1,1.151417078E-1,1.848387898E0,1.907993359E0
7.407858083E0,3.349155025E-1,1.221470559E-2,2.114038015E0,2.140437881E0
7.417884083E0,1.558248619E-1,1.896811176E-2,2.378780059E0,2.383953806E0
7.427911083E0,-7.376408726E-3,1.373856856E-1,2.656669568E0,2.660229770E0
7.437937083E0,-1.050063452E-1,2.406064191E-1,2.809535081E0,2.821773405E0
7.447964083E0,1.119222857E-2,3.253012547E-1,2.855347431E0,2.873839787E0
7.457990083E0,1.772217243E-1,3.457389911E-1,2.694026844E0,2.721897064E0
7.468017083E0,2.446844865E-1,3.844891470E-1,2.612178104E0,2.651636636E0
7.478043083E0,7.100222804E-2,3.889791508E-1,2.562663882E0,2.592989060E0
7.488070083E0,-2.025153174E-1,5.384339829E-1,2.344875564E0,2.414407799E0
7.498096083E0,-3.003553151E-1,7.938339306E-1,2.338146588E0,2.487431425E0
7.508123083E0,-2.431406023E-1,8.042674099E-1,2.460069805E0,2.599597443E0
7.518149083E0,-2.268473359E-1,5.499349810E-1,2.337722080E0,2.412225678E0
7.528176083E0,-2.184534386E-1,4.078067832E-1,2.130659895E0,2.180307287E0
7.538203083E0,-1.408423951E-1,3.011832078E-1,1.878458959E0,1.907657193E0
7.548229083E0,-1.990874603E-2,2.453458797E-2,1.554034969E0,1.554356133E0
7.558256083E0,1.516111390E-1,-3.372991565E-1,1.137548908E0,1.196149730E0
7.568282083E0,2.706312867E-1,-6.449100257E-1,8.153462756E-1,1.074215893E0
7.578309083E0,2.647818784E-1,-8.043101677E-1,6.086577272E-1,1.042827175E0
7.588335083E0,7.433864929E-2,-8.935377283E-1,6.061855245E-1,1.082310860E0
7.598362083E0,-2.277725116E-1,-9.455158210E-1,8.221553582E-1,1.273506937E0
7.608388083E0,-5.210043466E-1,-9.828375752E-1,9.952808887E-1,1.492648410E0
7.618415083E0,-8.143234514E-1,-1.035360336E0,1.071046185E0,1.697714240E0
7.628441083E0,-9.705994990E-1,-9.032764122E-1,1.050616014E0,1.691675404E0
7.638468083E0,-9.463818667E-1,-5.275053176E-1,7.849664819E-1,1.337936051E0
7.648495083E0,-8.229764535E-1,-1.776919135E-1,3.484127766E-1,9.111839123E-1
7.658521083E0,-7.591060013E-1,3.484684713E-3,-3.292520356E-1,8.274424253E-1
7.668548083E0,-8.070705651E-1,1.704919080E-1,-9.789531237E-1,1.280148275E0
7.678574083E0,-7.372643119E-1,4.640237052E-1,-1.518606690E0,1.750726404E0
7.688601083E0,-4.914461599E-1,6.235266119E-1,-1.993416388E0,2.145696544E0
7.698627083E0,-1.124572328E-1,5.263128510E-1,-2.332213418E0,2.393506063E0
7.708654083E0,1.958320230E-1,2.453988518E-1,-2.523787499E0,2.543240869E0
7.718680083E0,3.305539182E-1,8.480819855E-3,-2.643614489E0,2.664213840E0
7.728707083E0,2.846433350E-1,-2.962778689E-2,-2.713342536E0,2.728392815E0
7.738733083E0,1.528416125E-1,1.688247389E-2,-2.720193134E0,2.724535972E0
7.748760083E0,-7.689815830E-2,-9.217051914E-2,-2.660770220E0,2.663476468E0
7.758786083E0,-2.860357033E-1,-2.917618998E-1,-2.477233722E0,2.510702759E0
7.768813083E0,-2.494524524E-1,-3.427256650E-1,-2.216886445E0,2.257049605E0
7.778839083E0,1.567232866E-2,-3.935651220E-1,-1.903136548E0,1.943467995E0
7.788866083E0,2.417347124E-1,-5.899574545E-1,-1.633771110E0,1.753765523E0
7.798893083E0,2.568279840E-1,-7.277623672E-1,-1.621413020E0,1.795711240E0
7.808919083E0,2.478434082E-1,-5.811856443E-1,-1.700537542E0,1.814119908E0
7.818946083E0,1.285787373E-1,-3.091411952E-1,-1.748712167E0,1.780476064E0
7.828972083E0,-1.762599304E-2,-2.022705018E-1,-1.473760300E0,1.487680561E0
7.838999083E0,-9.853567019E-2,-1.643818600E-1,-1.481425999E0,1.493771624E0
7.849025083E0,-5.837034188E-2,3.528176577E-2,-1.611562800E0,1.613005443E0
7.859052083E0,-4.250450693E-3,9.937564099E-2,-1.383965194E0,1.387534951E0
7.869078083E0,5.448830232E-2,2.825328008E-2,-1.411331332E0,1.412665336E0
7.879105083E0,-2.628312472E-2,-6.874264007E-2,-1.318270556E0,1.320323299E0
7.889131083E0,-3.174098159E-1,-3.196927882E-1,-7.205786973E-1,8.498153500E-1
7.899158083E0,-5.704606814E-1,-6.540189645E-1,-2.705588543E-1,9.090480122E-1
7.909184083E0,-7.710280354E-1,-6.906218766E-1,-7.559748173E-2,1.037862123E0
7.919211083E0,-8.401837859E-1,-5.662070512E-1,3.391993189E-1,1.068435958E0
7.929237083E0,-8.937558295E-1,-4.980989391E-1,6.379844373E-1,1.205788613E0
7.939264083E0,-9.346351759E-1,-4.747437711E-1,8.083003807E-1,1.323734893E0
7.949291083E0,-1.007604115E0,-4.875026149E-1,1.223442167E0,1.658232670E0
7.959317083E0,-9.558165684E-1,-5.475824634E-1,1.407063450E0,1.786969339E0
7.969344083E0,-1.030688411E0,-6.526309086E-1,1.691304204E0,2.085367021E0
7.979370083E0,-1.273404724E0,-8.056624825E-1,2.468528388E0,2.892107195E0
7.989397083E0,-1.509358879E0,-1.170757438E0,2.850723453E0,3.431539219E0
7.999423083E0,-1.559144851E0,-1.523721688E0,3.036363194E0,3.737935512E0
8.009450083E0,-1.663285808E0,-1.763258578E0,2.834308564E0,3.729464510E0
8.019476083E0,-1.859864813E0,-1.640761749E0,2.420119289E0,3.465281174E0
8.029503083E0,-1.963143014E0,-1.230811121E0,2.057412409E0,3.098672672E0
8.039529083E0,-2.075245247E0,-6.210710006E-1,1.691736898E0,2.748517010E0
8.049556083E0,-2.136008343E0,1.630408376E-1,1.382133846E0,2.549393638E0
8.059582083E0,-1.992730217E0,7.682304351E-1,1.366935763E0,2.535678430E0
8.069609083E0,-1.344974205E0,7.215753552E-1,1.614033834E0,2.221425629E0
8.079635083E0,-3.475557210E-1,1.292087748E-1,1.234005162E0,1.288510235E0
8.089662083E0,5.570129259E-1,-3.368311965E-1,7.491014153E-1,9.924069654E-1
8.099688083E0,1.195672278E0,-6.189009527E-1,5.595919865E-1,1.458017070E0
8.109715083E0,1.616199642E0,-1.170902888E0,5.395781368E-1,2.067428215E0
8.119742083E0,1.802059824E0,-1.772245748E0,3.635167193E-1,2.553511113E0
8.129768083E0,1.657759020E0,-2.056676829E0,1.219179547E-1,2.644418374E0
8.139795083E0,1.303087676E0,-1.861295773E0,-1.041734093E-1,2.274491492E0
8.149821083E0,9.031686772E-1,-1.278552905E0,-2.833022761E-1,1.590808402E0
8.159848083E0,6.552973851E-1,-8.099179398E-1,-2.405573756E-1,1.069228499E0
8.169874083E0,5.965169341E-1,-7.021729781E-1,-3.572204375E-1,9.881729529E-1
8.179896458E0,5.329870091E-1,-5.617086786E-1,-6.447853339E-1,1.007640768E0
8.189922458E0,4.448043459E-1,-2.747064306E-1,-7.101583743E-1,8.818386733E-1
8.199949458E0,3.539470931E-1,-2.986622538E-2,-8.158684319E-1,8.898380945E-1
8.209975458E0,3.843094913E-1,1.390451071E-1,-1.021912617E0,1.100605617E0
8.220002458E0,5.570920095E-1,2.499567382E-1,-1.481428338E0,1.602329492E0
8.230028458E0,7.482958151E-1,4.286240038E-1,-2.042658715E0,2.217232461E0
8.240055458E0,9.197927499E-1,6.230939180E-1,-2.396445667E0,2.641442138E0
8.250081458E0,1.032362761E0,6.618574494E-1,-2.748723453E0,3.009868565E0
8.260108458E0,1.042745808E0,6.257896306E-1,-3.107736062E0,3.337207652E0
8.270134458E0,9.570637795E-1,5.989650171E-1,-3.238590317E0,3.429751800E0
8.280161458E0,8.226453549E-1,4.895454859E-1,-3.201628312E0,3.341679819E0
8.290187458E0,7.724275665E-1,4.163954294E-1,-2.969572788E0,3.096512885E0
8.300214458E0,7.194248955E-1,3.367498472E-1,-2.657839011E0,2.774000874E0
8.310240458E0,6.183366233E-1,3.428091706E-1,-2.316904238E0,2.422375602E0
8.320267458E0,5.191030148E-1,4.989449582E-1,-1.880143542E0,2.013294253E0
8.330294458E0,4.031595258E-1,6.780029275E-1,-1.420362942E0,1.624701960E0
8.340320458E0,3.111433549E-1,7.710303012E-1,-9.869784272E-1,1.290513204E0
8.350347458E0,1.460275597E-1,8.168868707E-1,-6.170034581E-1,1.034080014E0
8.360373458E0,8.592863470E-2,7.861449882E-1,-3.955787569E-1,8.842455687E-1
8.370400458E0,1.117044769E-1,7.585497849E-1,-4.501654387E-1,8.891144968E-1
8.380426458E0,1.279133242E-1,8.315674751E-1,-5.284766132E-1,9.935561457E-1
8.390453458E0,1.419524159E-1,9.037979838E-1,-5.902161938E-1,1.088740759E0
8.400479458E0,7.402984321E-2,7.930707228E-1,-5.983642888E-1,9.962336128E-1
8.410506458E0,5.872504860E-2,6.150864485E-1,-5.343086261E-1,8.168633168E-1
8.420532458E0,1.212317839E-1,4.021317681E-1,-4.704178548E-1,6.306346505E-1
8.430559458E0,2.274281837E-1,2.021967173E-1,-3.031857330E-1,4.295680154E-1
8.440585458E0,3.422853331E-1,3.132291298E-2,-1.731840026E-1,3.848805957E-1
8.450612458E0,4.208795860E-1,-1.547111135E-1,1.693236709E-2,4.487336176E-1
8.460638458E0,4.637338295E-1,-1.991889461E-1,1.777886850E-1,5.351019691E-1
8.470665458E0,4.941571849E-1,-9.723890394E-2,5.083037192E-1,7.155553079E-1
8.480691458E0,4.692001721E-1,-7.438871607E-2,8.512522727E-1,9.748399430E-1
8.490718458E0,3.347411824E-1,-1.847151870E-1,1.138299690E0,1.200790383E0
8.500744458E0,1.269958960E-1,-3.628983763E-1,1.401757686E0,1.453529429E0
8.510771458E0,-2.360733651E-1,-4.872803111E-1,1.689136641E0,1.773796868E0
8.520797458E0,-5.730955464E-1,-5.204384093E-1,1.822813346E0,1.980389643E0
8.530824458E0,-6.605513276E-1,-3.853309999E-1,1.732508948E0,1.893778047E0
8.540850458E0,-7.066857129E-1,-3.316738062E-1,1.928450314E0,2.080464569E0
8.550877458E0,-6.603805889E-1,-4.608322218E-1,2.223485613E0,2.364816511E0
8.560903458E0,-5.299882646E-1,-4.076334133E-1,2.407826103E0,2.498935594E0
8.570930458E0,-3.374242504E-1,-2.331452623E-1,2.625598049E0,2.657438043E0
8.580956458E0,-3.247565500E-1,-2.396728745E-1,2.747475073E0,2.776964022E0
8.590983458E0,-4.039211257E-1,-2.122916062E-1,2.670694699E0,2.709396645E0
8.601010458E0,-5.147235234E-1,-1.228215870E-1,2.353540553E0,2.412297366E0
8.611036458E0,-6.851276135E-1,-1.345750387E-1,1.988320540E0,2.107351147E0
8.621063458E0,-9.361912662E-1,-1.760039503E-1,1.602379164E0,1.864148723E0
8.631089458E0,-1.249708737E0,-2.387336655E-1,1.362099531E0,1.863888629E0
8.641116458E0,-1.370418072E0,-2.467481517E-1,1.268545250E0,1.883650019E0
8.651142458E0,-1.159081060E0,-3.235018472E-1,1.195386642E0,1.696193259E0
8.661169458E0,-8.267810905E-1,-5.795930820E-1,1.013456374E0,1.430590414E0
8.671195458E0,-5.528233228E-1,-7.719489719E-1,8.664199501E-1,1.285380244E0
8.681222458E0,-5.085688904E-1,-8.335505582E-1,8.037290275E-1,1.264685415E0
8.691248458E0,-5.909740660E-1,-7.495949203E-1,6.900129622E-1,1.177820351E0
8.701275458E0,-7.103872197E-1,-5.223294353E-1,5.518070036E-1,1.040177394E0
8.711301458E0,-7.392478336E-1,-2.749331381E-1,3.862442619E-1,8.782142220E-1
8.721328458E0,-6.741428880E-1,-8.901618384E-2,1.275593483E-1,6.918554053E-1
8.731354458E0,-4.878940129E-1,3.760625783E-2,-2.868410110E-1,5.672147425E-1
8.741381458E0,-2.478628868E-1,2.774747583E-1,-7.957703823E-1,8.784524765E-1
8.751407458E0,-7.123553194E-2,5.483538573E-1,-1.339228147E0,1.448895608E0
8.761434458E0,9.637585491E-2,7.128201000E-1,-1.828479298E0,1.964875911E0
8.771460458E0,2.360315575E-1,8.402501518E-1,-2.194043713E0,2.361262168E0
8.781487458E0,4.253168187E-1,8.603566068E-1,-2.415902277E0,2.599556058E0
8.791513458E0,6.760058109E-1,7.257554566E-1,-2.573674774E0,2.758170894E0
8.801540458E0,8.919764487E-1,5.396719846E-1,-2.581795387E0,2.784337489E0
8.811566458E0,1.028833016E0,2.879386431E-1,-2.540359678E0,2.755872517E0
8.821593458E0,1.053858368E0,1.579341353E-1,-2.455298477E0,2.676574539E0
8.831619458E0,9.564658286E-1,9.099354772E-3,-2.254438434E0,2.448959438E0
8.841646458E0,7.989915403E-1,-1.270533632E-1,-1.975238564E0,2.134501680E0
8.851672458E0,5.169059236E-1,-2.202839643E-1,-1.765521743E0,1.852777316E0
8.861699458E0,2.356799206E-1,-2.331095212E-1,-1.508927794E0,1.544910405E0
8.871725458E0,8.812294856E-2,-2.388667080E-1,-1.279032231E0,1.304126683E0
8.881752458E0,6.156781867E-2,-1.987755479E-1,-1.089274296E0,1.108972861E0
8.891778458E0,-4.306225821E-2,6.087813959E-2,-9.558607149E-1,9.587649411E-1
8.901805458E0,-1.783326222E-1,3.058610168E-1,-7.535318506E-1,8.325645534E-1
8.911831458E0,-2.021605376E-1,3.326096530E-1,-7.182497513E-1,8.169337608E-1
8.921858458E0,-3.079359379E-1,3.347537174E-1,-6.921793556E-1,8.282492701E-1
8.931884458E0,-3.670124772E-1,4.335412929E-1,-5.199554658E-1,7.700713587E-1
8.941911458E0,-5.104336406E-1,5.128412316E-1,-2.375402123E-1,7.615602292E-1
8.951937458E0,-4.945327954E-1,4.234129287E-1,5.139901364E-1,8.294739623E-1
8.961964458E0,-2.416641804E-1,1.938582040E-1,1.180610143E0,1.220583012E0
8.971990458E0,9.744604155E-2,-1.445060228E-1,1.802017724E0,1.810426911E0
8.982017458E0,4.121790022E-1,-5.240429619E-1,2.353657497E0,2.446265760E0
8.992043458E0,5.823831175E-1,-8.781908338E-1,2.772608745E0,2.966099878E0
9.002070458E0,4.022010941E-1,-9.956717750E-1,2.962102386E0,3.150742539E0
9.012096458E0,1.013846529E-1,-9.300247195E-1,2.964109735E0,3.108242485E0
9.022123458E0,-1.761246405E-1,-7.479625969E-1,2.742887932E0,2.848491205E0
9.032149458E0,-3.551342972E-1,-5.114115508E-1,2.332362522E0,2.414037506E0
9.042176458E0,-4.276859643E-1,-5.661752935E-1,2.094182040E0,2.211123733E0
9.052202458E0,-3.553821460E-1,-9.758774883E-1,1.861406139E0,2.131540794E0
9.062229458E0,-2.135335182E-1,-1.516952658E0,1.811021851E0,2.372033321E0
9.072256458E0,-1.258440676E-1,-1.920451030E0,1.834619460E0,2.658909072E0
9.082282458E0,-4.444307819E-2,-2.013393985E0,1.686700106E0,2.626916020E0
9.092309458E0,-7.266751505E-2,-1.878710389E0,1.530578279E0,2.424356237E0
9.102335458E0,-2.461690215E-1,-1.572759216E0,1.313987471E0,2.064154503E0
9.112362458E0,-4.848561651E-1,-1.012179927E0,9.645163482E-1,1.479826169E0
9.122388458E0,-5.966733471E-1,-3.304837516E-1,5.108934510E-1,8.522034449E-1
9.132415458E0,-6.639808658E-1,2.093539285E-1,-8.583361745E-2,7.014749228E-1
9.142441458E0,-6.915080222E-1,4.508834402E-1,-5.218137109E-1,9.766108592E-1
9.152468458E0,-5.687824208E-1,4.185327329E-1,-9.221181875E-1,1.161458154E0
9.162494458E0,-3.557624343E-1,2.303998666E-1,-1.204535195E0,1.276932279E0
9.172521458E0,-1.275486041E-1,-8.781814417E-2,-1.171561577E0,1.181751751E0
9.182547583E0,1.432765909E-1,-5.380760967E-1,-1.012497430E0,1.155510759E0
9.192574583E0,2.779545589E-1,-9.587918510E-1,-6.857170129E-1,1.211093874E0
9.202600583E0,2.376270069E-1,-1.175328207E0,-2.353977925E-1,1.221996362E0
9.212627583E0,1.232433723E-1,-1.268431960E0,2.200289708E-1,1.293259956E0
9.222653583E0,1.084219962E-2,-1.359144202E0,3.804368073E-1,1.411425761E0
9.232680583E0,-7.276852570E-2,-1.262194443E0,3.274557710E-1,1.306008174E0
9.242706583E0,-2.227992720E-1,-1.004668740E0,2.215270275E-1,1.052650472E0
9.252733583E0,-3.657969507E-1,-5.975832835E-1,-1.467773920E-1,7.158608752E-1
9.262759583E0,-4.408704854E-1,-7.139207287E-2,-7.371812814E-1,8.619163850E-1
9.272786583E0,-4.225238596E-1,4.548245001E-1,-1.396586993E0,1.528347790E0
9.282812583E0,-2.680001859E-1,7.951217068E-1,-1.989758370E0,2.159439973E0
9.292839583E0,1.894242056E-2,9.300361946E-1,-2.512908754E0,2.679559021E0
9.302865583E0,2.485907190E-1,9.705593725E-1,-2.829838952E0,3.001961249E0
9.312892583E0,3.484738434E-1,9.914266965E-1,-2.937038881E0,3.119384282E0
9.322918583E0,3.885623174E-1,9.454381992E-1,-3.134149105E0,3.296623223E0
9.332945583E0,3.177019940E-1,8.943713951E-1,-3.164956915E0,3.304207473E0
9.342971583E0,2.120534052E-1,8.315266907E-1,-3.023218068E0,3.142650279E0
9.352998583E0,1.630728512E-1,6.892860802E-1,-2.845407749E0,2.932243733E0
9.363024583E0,1.618184041E-2,5.456187857E-1,-2.573464859E0,2.630719120E0
9.373051583E0,-1.164555224E-1,4.301219143E-1,-2.231630784E0,2.275685107E0
9.383077583E0,-1.945177517E-1,3.662728044E-1,-1.987201383E0,2.030015334E0
9.393104583E0,-2.076428505E-1,2.832888093E-1,-1.716891035E0,1.752450549E0
9.403130583E0,-1.192694584E-1,2.709963174E-1,-1.520362608E0,1.548924359E0
9.413157583E0,-8.740439884E-2,3.115410387E-1,-1.277333030E0,1.317678647E0
9.423183583E0,-1.665123661E-1,4.151112346E-1,-9.938717097E-1,1.089873699E0
9.433210583E0,-2.550195681E-1,6.309608350E-1,-7.729334968E-1,1.029841127E0
9.443236583E0,-3.106719232E-1,8.982373548E-1,-6.070702082E-1,1.127777295E0
9.453263583E0,-3.604875693E-1,1.081687899E0,-5.201133406E-1,1.253203050E0
9.463289583E0,-4.840643425E-1,1.094439507E0,-4.054669833E-1,1.263534565E0
9.473316583E0,-6.050283605E-1,1.044777862E0,-1.661825466E-1,1.218702891E0
9.483342583E0,-6.645105504E-1,9.994633289E-1,1.167115939E-1,1.205870148E0
9.493369583E0,-6.176364923E-1,9.628971811E-1,3.560369611E-1,1.198085196E0
9.503395583E0,-4.803610085E-1,8.084420295E-1,7.476413655E-1,1.201371227E0
9.513422583E0,-2.575337429E-1,4.559272484E-1,1.107114151E0,1.224702016E0
9.523448583E0,1.708666049E-3,1.743975374E-1,1.314665748E0,1.326183792E0
9.533475583E0,1.114692727E-1,2.182537927E-1,1.500020145E0,1.519908074E0
9.543501583E0,4.385488484E-2,3.966667045E-1,1.769337051E0,1.813786461E0
9.553528583E0,-6.186946191E-2,2.686053361E-1,2.219630544E0,2.236679773E0
9.563554583E0,-1.469796326E-1,-2.510923588E-1,2.491688039E0,2.508617083E0
9.573581583E0,-2.293203427E-1,-7.262225761E-1,2.946973300E0,3.043786898E0
9.583607583E0,-2.179927145E-1,-8.918683483E-1,3.202228822E0,3.331248925E0
9.593634583E0,-1.201162448E-1,-8.714915326E-1,3.264929100E0,3.381373601E0
9.603660583E0,-8.725609884E-2,-8.208977683E-1,3.250818014E0,3.353998291E0
9.613687583E0,-8.968627475E-2,-5.730324695E-1,3.158271793E0,3.211088687E0
9.623713583E0,-1.130084060E-1,-1.420071604E-1,2.975859715E0,2.981388599E0
9.633740583E0,-1.481065372E-1,2.499207778E-1,2.876390975E0,2.891024210E0
9.643766583E0,-1.540814415E-2,3.573567507E-1,2.726370133E0,2.749733689E0
9.653793583E0,1.774907693E-1,2.327785688E-1,2.460042908E0,2.477397817E0
9.663819583E0,3.168889752E-1,-2.005196627E-2,2.140341715E0,2.163766013E0
9.673846583E0,4.732631099E-1,-2.281886506E-1,1.595722108E0,1.679993178E0
9.683872583E0,5.861458739E-1,-4.059750333E-1,1.151519076E0,1.354392445E0
9.693899583E0,6.158604737E-1,-7.091643476E-1,8.546869272E-1,1.269916508E0
9.703925583E0,5.848689151E-1,-9.559461574E-1,6.468248427E-1,1.293942456E0
9.713952583E0,4.447065512E-1,-1.134798962E0,5.292034221E-1,1.328754629E0
9.723978583E0,2.748398933E-1,-1.288406049E0,5.440424860E-1,1.425310261E0
9.734005583E0,1.897845402E-1,-1.406414847E0,5.493003023E-1,1.521759415E0
9.744031583E0,1.133325610E-1,-1.378573038E0,4.648033583E-1,1.459229266E0
9.754058583E0,-2.205979049E-2,-1.200929144E0,3.592318797E-1,1.253700517E0
9.764084583E0,-7.775261924E-2,-1.026124220E0,1.196106434E-1,1.035993770E0
9.774111583E0,-7.179978825E-2,-8.402858198E-1,-2.718469959E-1,8.860791487E-1
9.784137583E0,-5.401438549E-3,-6.025348885E-1,-6.997696263E-1,9.234473440E-1
9.794164583E0,6.500408113E-2,-3.730552457E-1,-1.122470693E0,1.184624921E0
9.804190583E0,1.528971610E-1,-2.227846539E-1,-1.463255192E0,1.487994053E0
9.814217583E0,2.267120460E-1,-1.622843541E-1,-1.655271907E0,1.678588588E0
9.824243583E0,3.031329618E-1,-2.241112410E-1,-1.742694798E0,1.783003252E0
9.834269583E0,3.756946423E-1,-3.235535585E-1,-1.772076471E0,1.840132710E0
9.844296583E0,4.252565192E-1,-4.196852191E-1,-1.796938832E0,1.893665218E0
9.854323583E0,3.968105460E-1,-5.132961084E-1,-1.725751321E0,1.843678151E0
9.864349583E0,3.621094407E-1,-6.528055941E-1,-1.637372410E0,1.799518491E0
9.874375583E0,3.022778796E-1,-8.551443987E-1,-1.531988043E0,1.780345815E0
9.884402583E0,2.329010314E-1,-9.251339621E-1,-1.421049405E0,1.711577386E0
9.894428583E0,1.744307752E-1,-9.172736963E-1,-1.325300664E0,1.621184437E0
9.904455583E0,1.279502347E-1,-8.903383512E-1,-1.294488761E0,1.576316844E0
9.914481583E0,8.051016614E-2,-8.874607171E-1,-1.296916525E0,1.573550407E0
9.924508583E0,2.871779568E-2,-8.394229900E-1,-1.371496006E0,1.608246549E0
9.934534583E0,-3.369399548E-2,-7.335823202E-1,-1.417721170E0,1.596625072E0
9.944561583E0,-1.495931187E-1,-5.434489205E-1,-1.423301167E0,1.530849778E0
9.954587583E0,-2.379799960E-1,-3.680962952E-1,-1.331131507E0,1.401442275E0
9.964614583E0,-1.998957648E-1,-3.378697351E-1,-1.316877750E0,1.374147475E0
9.974640583E0,-1.621662404E-1,-4.428683328E-1,-1.256082494E0,1.341705438E0
9.984667583E0,-1.454114094E-1,-5.601453524E-1,-1.149456763E0,1.286918079E0
9.994693583E0,-2.229967251E-1,-7.209087726E-1,-1.119835353E0,1.350358551E0
1.000472058E1,-3.501096386E-1,-8.245930624E-1,-1.039669442E0,1.372385888E0
1.001474658E1,-3.486525124E-1,-8.409863162E-1,-7.818317896E-1,1.200032294E0
1.002477358E1,-2.067828347E-1,-9.451110475E-1,-6.470493758E-1,1.163901597E0
1.003479958E1,-1.579508364E-1,-1.027731912E0,-5.118097097E-1,1.158935084E0
1.004482658E1,-2.581566541E-1,-1.049476976E0,-3.286094266E-1,1.129615394E0
1.005485258E1,-4.024066237E-1,-1.162124755E0,-1.991076332E-1,1.245836622E0
1.006487958E1,-5.634793982E-1,-1.313681369E0,-7.629154623E-2,1.431463647E0
1.007490558E1,-7.062557964E-1,-1.303059171E0,-3.211290836E-3,1.482150723E0
1.008493258E1,-8.277293627E-1,-1.045707496E0,1.651049048E-1,1.343837674E0
1.009495858E1,-8.621595957E-1,-7.275742330E-1,9.854546428E-2,1.132428647E0
1.010498558E1,-8.203740770E-1,-3.938097915E-1,1.021923727E-1,9.157199677E-1
1.011501158E1,-6.427512337E-1,-4.661582130E-2,4.097161549E-1,7.636553613E-1
1.012503858E1,-3.429129952E-1,-3.805069008E-1,1.034163703E0,1.154066458E0
1.013506458E1,2.121331101E-1,-1.315013072E0,1.433298737E0,1.956682168E0
1.014509158E1,6.315334967E-1,-1.972433070E0,1.716390513E0,2.689855603E0
1.015511758E1,6.762663044E-1,-2.233382172E0,1.947554922E0,3.039457552E0
1.016514458E1,2.932276323E-1,-2.041432554E0,1.920309235E0,2.817980993E0
1.017517058E1,-4.004746306E-1,-1.339059308E0,1.977720122E0,2.421742481E0
1.018520538E1,-1.089973038E0,-5.949338736E-1,2.117290236E0,2.454568288E0
1.019523138E1,-1.489505974E0,1.392667714E-1,1.817776555E0,2.354216406E0
1.020525838E1,-1.651069952E0,1.069287197E0,1.377315740E0,2.401334159E0
1.021528438E1,-1.838124573E0,1.817014370E0,9.704518569E-1,2.760800604E0
1.022531138E1,-1.911103964E0,2.207443046E0,6.208281219E-1,2.985054559E0
1.023533738E1,-1.856183698E0,2.172161093E0,4.564880329E-1,2.893455211E0
1.024536438E1,-1.728765853E0,1.656616182E0,4.349644321E-1,2.433557602E0
1.025539038E1,-1.378587217E0,1.020035515E0,4.947083580E-1,1.784856164E0
1.026541738E1,-8.490289421E-1,4.430384137E-1,5.222317868E-1,1.090806683E0
1.027544338E1,-3.568899968E-1,-2.288548312E-1,9.200968051E-1,1.013076075E0
1.028547038E1,4.605522864E-2,-8.261737841E-1,1.285962351E0,1.529177352E0
1.029549638E1,3.295050739E-1,-1.121610421E0,1.284374832E0,1.736721693E0
1.030552338E1,3.698149015E-1,-1.311081843E0,1.176291389E0,1.799822240E0
1.031554937E1,2.207043973E-1,-1.385486054E0,7.787175626E-1,1.604581902E0
1.032557537E1,8.880093321E-3,-1.099633661E0,2.690643060E-1,1.132108054E0
1.033560238E1,-5.123695806E-2,-5.735899650E-1,-3.927872962E-1,6.970742671E-1
1.034562838E1,1.244935801E-1,-1.297113064E-1,-1.084254461E0,1.099059330E0
1.035565537E1,4.231283520E-1,2.758755814E-1,-1.730844830E0,1.803044305E0
1.036568137E1,6.484735382E-1,6.393794368E-1,-2.170749575E0,2.354034348E0
1.037570838E1,8.208134953E-1,8.828163468E-1,-2.235599290E0,2.539882611E0
1.038573438E1,9.607593660E-1,8.967119624E-1,-2.226570019E0,2.585491240E0
1.039576137E1,1.039533713E0,8.197899402E-1,-2.219214222E0,2.584104806E0
1.040578737E1,1.059129779E0,7.507096919E-1,-2.224461513E0,2.575567890E0
1.041581438E1,1.029955024E0,6.253875614E-1,-2.245434891E0,2.548312148E0
1.042584038E1,1.002664606E0,4.763790181E-1,-2.226911497E0,2.488254025E0
1.043586737E1,9.465306783E-1,3.646370459E-1,-2.289442205E0,2.504081890E0
1.044589337E1,8.559709027E-1,3.037654661E-1,-2.154607751E0,2.338224584E0
1.045592038E1,7.905509383E-1,3.139506762E-1,-2.051648224E0,2.220989925E0
1.046594638E1,7.914169110E-1,3.167870875E-1,-1.941344009E0,2.120262094E0
1.047597337E1,8.151577029E-1,3.524858374E-1,-1.741993716E0,1.955318504E0
1.048599937E1,7.855732767E-1,4.453163427E-1,-1.618499937E0,1.853368302E0
1.049602638E1,6.955834584E-1,5.487362652E-1,-1.387094039E0,1.645897235E0
1.050605238E1,5.423538466E-1,5.988732158E-1,-1.145987610E0,1.402171325E0
1.051607937E1,3.026308687E-1,6.101921097E-1,-8.641909915E-1,1.100339004E0
1.052610538E1,1.144281831E-1,6.178287195E-1,-6.654324371E-1,9.152084266E-1
1.053613238E1,-6.191872470E-3,6.173491748E-1,-5.674541527E-1,8.385478867E-1
1.054615838E1,-3.721482329E-2,6.882309502E-1,-5.019138819E-1,8.526220315E-1
1.055618537E1,9.966907986E-3,8.119783524E-1,-4.901890451E-1,9.485217362E-1
1.056621138E1,1.751364610E-1,8.084538701E-1,-5.523911405E-1,9.946891033E-1
1.057623838E1,3.501345258E-1,6.786851513E-1,-6.186342466E-1,9.828102827E-1
1.058626438E1,4.726274810E-1,5.724263325E-1,-6.500355488E-1,9.867091044E-1
1.059629137E1,4.737395849E-1,4.799958133E-1,-5.614145637E-1,8.775029843E-1
1.060631738E1,3.758105633E-1,3.421968209E-1,-2.726732075E-1,5.767867213E-1
1.061634338E1,2.837443987E-1,2.254346486E-1,-8.822278976E-3,3.625044789E-1
1.062637038E1,1.860176543E-1,1.816737943E-1,3.602913952E-1,4.443172568E-1
1.063639638E1,1.534823211E-1,1.366692372E-1,7.386191118E-1,7.666769173E-1
1.064642338E1,1.116370878E-1,3.438871779E-2,1.129517757E0,1.135542068E0
1.065644938E1,5.265213042E-2,-5.162777133E-2,1.405789926E0,1.407722625E0
1.066647638E1,-6.165044714E-2,-5.008348513E-2,1.504931222E0,1.507025917E0
1.067650238E1,-1.086973635E-1,6.620254107E-2,1.425875112E0,1.431543827E0
1.068652938E1,1.508099243E-2,1.339422420E-1,1.340133880E0,1.346895236E0
1.069655538E1,7.332328029E-2,3.681776080E-2,1.440149335E0,1.442484647E0
1.070658238E1,2.746839188E-2,7.800478041E-3,1.326833219E0,1.327140441E0
1.071660838E1,-1.667337198E-1,1.597117620E-1,1.456329165E0,1.474517758E0
1.072663538E1,-5.815341018E-1,1.336852935E-1,1.991497332E0,2.078969767E0
1.073666138E1,-9.346140528E-1,4.014124509E-2,2.456070895E0,2.628193103E0
1.074668838E1,-1.225339150E0,2.397961046E-1,2.789061640E0,3.055785175E0
1.075671438E1,-1.301913263E0,7.074477513E-1,2.984324144E0,3.331914024E0
1.076674138E1,-1.227958849E0,9.600759727E-1,2.769533109E0,3.178040662E0
1.077676738E1,-1.162114961E0,8.385081200E-1,2.537171776E0,2.913905913E0
1.078679438E1,-9.172071111E-1,7.301185758E-1,2.255761074E0,2.542203777E0
1.079682038E1,-6.542231054E-1,5.202300657E-1,2.017921484E0,2.184182755E0
1.080684738E1,-4.723445123E-1,2.705639707E-1,1.592287454E0,1.682763660E0
1.081687338E1,-3.955528830E-1,1.871682036E-1,1.279163209E0,1.351943983E0
1.082689938E1,-3.884535592E-1,1.234398387E-1,1.003488625E0,1.083108020E0
1.083692638E1,-3.070486960E-1,-1.019345105E-2,1.005353887E0,1.051246520E0
1.084695237E1,-9.104882218E-2,-2.209942000E-1,9.021195406E-1,9.332459429E-1
1.085697938E1,6.740962565E-2,-4.634538209E-1,7.830784160E-1,9.124392075E-1
1.086700538E1,4.254763015E-2,-6.977557721E-1,8.853953344E-1,1.128094994E0
1.087703238E1,-3.049761504E-1,-7.565691137E-1,8.996999627E-1,1.214441147E0
1.088705837E1,-7.678743397E-1,-6.242809758E-1,8.333399123E-1,1.293759308E0
1.089708538E1,-1.018467365E0,-4.345913798E-1,5.540920955E-1,1.238209793E0
1.090711138E1,-1.066556182E0,-3.403676657E-1,4.628714383E-2,1.120506464E0
1.091713838E1,-9.672657090E-1,-2.748836378E-1,-5.010151649E-1,1.123467917E0
1.092716437E1,-6.346294512E-1,-2.089699126E-1,-1.122651372E0,1.306433721E0
1.093719138E1,-2.013956487E-1,-2.516510054E-1,-1.811797192E0,1.840243870E0
1.094721738E1,1.648079393E-1,-2.504139539E-1,-2.241157068E0,2.261117823E0
1.095724438E1,3.934446694E-1,-1.345885056E-1,-2.490568882E0,2.525043788E0
1.096727037E1,5.717715906E-1,-1.015181156E-1,-2.580633545E0,2.645165056E0
1.097729738E1,7.470424645E-1,-1.806516645E-1,-2.600667860E0,2.711859286E0
1.098732338E1,8.154172461E-1,-2.866290129E-1,-2.405834541E0,2.556384423E0
1.099735038E1,8.896639480E-1,-4.539656172E-1,-2.222081696E0,2.436233525E0
1.100737637E1,8.737869302E-1,-5.577845391E-1,-2.055362960E0,2.301986987E0
1.101740338E1,7.783827364E-1,-5.823174825E-1,-1.874205694E0,2.111307727E0
1.102742938E1,5.978003979E-1,-6.454126670E-1,-1.763465277E0,1.970718805E0
1.103745538E1,3.385026962E-1,-6.627537545E-1,-1.636334530E0,1.797614338E0
1.104748237E1,1.039607169E-1,-4.734736462E-1,-1.639378005E0,1.709545369E0
1.105750838E1,1.018767692E-2,-1.770756901E-1,-1.575401865E0,1.585355047E0
1.106753538E1,7.442986585E-2,-7.136417069E-2,-1.459166234E0,1.462805096E0
1.107756138E1,1.633793183E-1,-8.208927982E-2,-1.353538622E0,1.365832440E0
1.108758837E1,2.497338496E-1,6.434787735E-3,-1.225772867E0,1.250970633E0
1.109761438E1,3.220295548E-1,1.128744317E-1,-1.116504779E0,1.167487299E0
1.110764138E1,3.266525828E-1,1.288748988E-1,-1.030184673E0,1.088389227E0
1.111766738E1,2.025416299E-1,-2.808775820E-2,-7.599567711E-1,7.869855958E-1
1.112769437E1,1.944433093E-2,-1.680554829E-1,-5.501703680E-1,5.755937466E-1
1.113772038E1,-1.028653872E-1,-2.093009016E-1,-4.751640397E-1,5.293099469E-1
1.114774738E1,-2.640903720E-1,-3.681324383E-1,-2.562787843E-1,5.205228448E-1
1.115777338E1,-4.496371427E-1,-6.422836757E-1,1.049048960E-2,7.840994392E-1
1.116780037E1,-5.277574787E-1,-7.925269318E-1,4.265222222E-1,1.043335085E0
1.117782638E1,-3.951823888E-1,-9.570011412E-1,8.819466466E-1,1.360091979E0
1.118784546E1,-6.016207494E-2,-1.329761066E0,9.964497471E-1,1.662767592E0
1.119787146E1,7.036773205E-2,-1.434283408E0,1.142861688E0,1.835280183E0
1.120789846E1,-2.385089497E-1,-1.250831402E0,1.285032059E0,1.809080736E0
1.121792446E1,-5.704917081E-1,-1.252838751E0,1.593906548E0,2.106087322E0
1.122795146E1,-6.499841664E-1,-1.454024485E0,1.587006834E0,2.248389937E0
1.123797746E1,-7.575013060E-1,-1.570956957E0,1.447577637E0,2.266538111E0
1.124800346E1,-9.371351530E-1,-1.561468096E0,1.545910848E0,2.388774845E0
1.125803046E1,-1.017994252E0,-1.557616096E0,1.713239449E0,2.529361502E0
1.126805646E1,-9.911918577E-1,-1.477687290E0,2.330903057E0,2.932427337E0
1.127808346E1,-8.289705073E-1,-1.478309726E0,2.850031727E0,3.315912030E0
1.128810946E1,-6.555926695E-1,-1.644253706E0,2.772550857E0,3.289439200E0
1.129813646E1,-6.186101999E-1,-1.712126431E0,2.414328207E0,3.023745390E0
1.130816246E1,-9.043603398E-1,-1.288230194E0,1.742750346E0,2.348315018E0
1.131818946E1,-1.389334838E0,-3.267963512E-1,1.176804190E0,1.849841953E0
1.132821546E1,-1.482263321E0,5.135993962E-1,7.142099100E-1,1.723654457E0
1.133824246E1,-1.066567218E0,8.481482783E-1,3.612094080E-1,1.409749400E0
1.134826846E1,-4.527456687E-1,6.657095951E-1,1.240077496E-1,8.145709469E-1
1.135829546E1,3.084742472E-2,2.014368716E-1,-5.578185260E-2,2.112817832E-1
1.136832146E1,3.412945590E-1,-1.180349649E-1,-1.158163851E-1,3.792461786E-1
1.137834846E1,3.937925056E-1,-2.495859881E-1,-1.214507622E-1,4.817841743E-1
1.138837446E1,3.059493646E-1,-4.004804047E-1,7.465315640E-2,5.094729257E-1
1.139840046E1,2.036164760E-1,-6.005973405E-1,2.672171706E-1,6.881728351E-1
1.140842746E1,1.710767940E-1,-7.506737316E-1,3.352419233E-1,8.397413101E-1
1.141845346E1,1.250654378E-1,-7.116134539E-1,4.618195242E-1,8.575035536E-1
1.142848046E1,1.159388112E-1,-5.277575518E-1,4.097260952E-1,6.781189531E-1
1.143850646E1,7.545497412E-2,-3.394353271E-1,1.202134913E-1,3.679144981E-1
1.144853346E1,-2.749201829E-2,-1.070799872E-1,-1.149042195E-1,1.594519187E-1
1.145855946E1,-6.500271069E-2,1.702031652E-1,-5.272919673E-1,5.578810703E-1
1.146858646E1,3.803674081E-2,4.646960619E-1,-1.052746739E0,1.151375230E0
1.147861246E1,2.341895384E-1,7.324600933E-1,-1.577657720E0,1.755091568E0
1.148863946E1,3.996134088E-1,9.604280481E-1,-2.030735657E0,2.281666107E0
1.149866546E1,4.787517816E-1,1.044736054E0,-2.333179379E0,2.600846536E0
1.150869246E1,5.139211027E-1,1.017266931E0,-2.442187850E0,2.695037737E0
1.151871846E1,5.945073923E-1,8.413584915E-1,-2.470551524E0,2.676742047E0
1.152874546E1,6.741506356E-1,6.504189069E-1,-2.460127108E0,2.632441684E0
1.153877146E1,7.775562324E-1,5.560811721E-1,-2.497641674E0,2.674328682E0
1.154879746E1,7.639258611E-1,4.934258444E-1,-2.347006289E0,2.517039989E0
1.155882446E1,7.308836840E-1,4.216957111E-1,-2.118259705E0,2.280140875E0
1.156885046E1,7.084506950E-1,3.681469832E-1,-1.996374494E0,2.150103651E0
1.157887746E1,6.457961713E-1,3.925223442E-1,-1.919842628E0,2.063231010E0
1.158890346E1,5.478296544E-1,4.730198658E-1,-1.711302266E0,1.858069043E0
1.159893046E1,4.089423490E-1,5.473885551E-1,-1.501455637E0,1.649617260E0
1.160895646E1,2.202748828E-1,6.497000648E-1,-1.154994661E0,1.343370338E0
1.161898346E1,1.571551400E-1,7.400662246E-1,-8.623268992E-1,1.147171929E0
1.162900946E1,1.727526974E-1,7.854911233E-1,-7.832807297E-1,1.122661347E0
1.163903646E1,1.980397307E-1,8.689903130E-1,-7.123773926E-1,1.140984421E0
1.164906246E1,9.089390751E-2,9.791302943E-1,-7.549731892E-1,1.239734791E0
1.165908946E1,-8.642791383E-2,9.841465475E-1,-6.146938080E-1,1.163556053E0
1.166911546E1,-2.523806649E-1,9.388115497E-1,-7.004356241E-1,1.198195806E0
1.167914246E1,-2.812219464E-1,1.091001855E0,-7.087942189E-1,1.331074782E0
1.168916846E1,-1.395857188E-1,1.185031003E0,-6.405402553E-1,1.354280056E0
1.169919446E1,4.238496792E-2,9.704343883E-1,-5.407528424E-1,1.111734242E0
1.170922146E1,2.315476933E-1,7.342724378E-1,-2.684257901E-1,8.153666366E-1
1.171924746E1,4.368986545E-1,6.455750003E-1,9.162703872E-2,7.848840867E-1
1.172927446E1,4.824885910E-1,5.650767479E-1,5.574372876E-1,9.288935897E-1
1.173930046E1,5.006756974E-1,4.350545523E-1,1.132142572E0,1.312133919E0
1.174932746E1,5.009067355E-1,2.114119291E-1,1.653961546E0,1.741031693E0
1.175935346E1,3.141813124E-1,-6.799233723E-2,2.145165083E0,2.169116430E0
1.176938046E1,-1.117037460E-3,-4.236875651E-1,2.516771425E0,2.552185496E0
1.177940646E1,-2.664172349E-1,-7.720148993E-1,2.775548725E0,2.893208577E0
1.178943346E1,-4.680378918E-1,-1.045056993E0,2.961269158E0,3.174951749E0
1.179945946E1,-5.374035573E-1,-1.183274134E0,3.068643917E0,3.332493924E0
1.180948646E1,-5.422737398E-1,-1.065085388E0,3.152888846E0,3.371820839E0
1.181951246E1,-5.519490910E-1,-8.081630442E-1,3.190197591E0,3.336935117E0
1.182953946E1,-5.040644878E-1,-6.133201508E-1,2.956705406E0,3.061429318E0
1.183956546E1,-3.506091370E-1,-2.119270323E-1,2.574404506E0,2.606798495E0
1.184959146E1,-1.211523349E-1,4.022080742E-1,2.094145203E0,2.135858926E0
1.185961846E1,1.247578011E-1,7.271563033E-1,1.549370645E0,1.716062410E0
1.186964446E1,2.254925361E-1,5.981765566E-1,1.108196470E0,1.279359798E0
1.187967146E1,1.343053541E-1,3.667035981E-1,7.432898676E-1,8.396364001E-1
1.188969746E1,7.171705015E-2,2.131620008E-1,4.544830227E-1,5.070859806E-1
1.189972446E1,1.805406039E-1,-1.474499680E-2,1.504599684E-1,2.354793551E-1
1.190975046E1,3.374204497E-1,-3.418369248E-1,-6.250030339E-2,4.843669383E-1
1.191977746E1,4.287055725E-1,-6.028295881E-1,-8.739833236E-2,7.448694172E-1
1.192980346E1,4.904014452E-1,-7.601557957E-1,1.401893342E-1,9.154143655E-1
1.193983046E1,5.950137611E-1,-8.703032322E-1,3.584512764E-1,1.113533300E0
1.194985646E1,6.742308886E-1,-9.348204596E-1,4.893295044E-1,1.252166102E0
1.195988346E1,6.239030995E-1,-9.238266709E-1,5.833550709E-1,1.258178816E0
1.196990946E1,3.999152348E-1,-7.567650685E-1,5.726435566E-1,1.029828241E0
1.197993646E1,1.383440625E-1,-4.915191405E-1,4.568394506E-1,6.851513911E-1
1.198996246E1,-8.594471455E-2,-1.759568254E-1,1.948257172E-1,2.762324355E-1
1.199998846E1,-2.671274524E-1,1.193390037E-1,-6.560283601E-2,2.998376322E-1
1.201001546E1,-2.471531079E-1,4.254059887E-1,-4.741922325E-1,6.833104619E-1
1.202004146E1,-1.528478617E-1,6.450771099E-1,-8.423364383E-1,1.071922395E0
1.203006846E1,4.953169070E-2,7.428305689E-1,-1.123764097E0,1.347997177E0
1.204009446E1,3.287943448E-1,6.966548145E-1,-1.444592634E0,1.637156538E0
1.205012146E1,6.417908286E-1,6.037467239E-1,-1.764979121E0,1.972702936E0
1.206014746E1,8.979686022E-1,5.548997787E-1,-1.943707454E0,2.211845392E0
1.207017446E1,1.090648976E0,4.255294746E-1,-2.072330410E0,2.380156266E0
1.208020046E1,1.168203302E0,1.895140334E-1,-2.193721531E0,2.492594768E0
1.209022746E1,1.062686129E0,-5.847361833E-3,-2.210162147E0,2.452376953E0
1.210025346E1,8.713042025E-1,-1.330854422E-1,-2.084179793E0,2.262893757E0
1.211028046E1,6.702008414E-1,-2.382644265E-1,-2.003790518E0,2.126291500E0
1.212030646E1,4.862130115E-1,-3.182177550E-1,-1.906728492E0,1.993308600E0
1.213033346E1,3.400766570E-1,-3.270793930E-1,-1.781012771E0,1.842454763E0
1.214035946E1,2.820907331E-1,-4.559167234E-1,-1.667685546E0,1.751744936E0
1.215038546E1,2.430052027E-1,-6.941102524E-1,-1.510910000E0,1.680383765E0
1.216041246E1,2.255018551E-1,-8.622247191E-1,-1.294070685E0,1.571273843E0
1.217043846E1,1.651721478E-1,-8.953687839E-1,-1.027093250E0,1.372547865E0
1.218046546E1,-7.507452138E-2,-8.668668236E-1,-7.691924483E-1,1.161357523E0
1.219049633E1,-3.651844183E-1,-7.283932087E-1,-5.784504265E-1,9.992603373E-1
1.220052333E1,-5.702162312E-1,-6.101169365E-1,-3.440934384E-1,9.032106735E-1
1.221054933E1,-6.646388968E-1,-5.509799515E-1,-1.838434768E-1,8.826789870E-1
1.222057633E1,-6.096763853E-1,-4.328306369E-1,-1.074905348E-1,7.553819366E-1
1.223060233E1,-4.971733249E-1,-3.324541902E-1,3.604223728E-3,5.980970607E-1
1.224062933E1,-3.639094330E-1,-3.747929285E-1,2.176158249E-1,5.659120620E-1
1.225065533E1,-2.521453144E-1,-4.606011837E-1,5.653433079E-1,7.715852291E-1
1.226068233E1,-2.053289976E-1,-5.643656534E-1,9.595134705E-1,1.131960551E0
1.227070833E1,-2.167135265E-1,-6.927712400E-1,1.277207315E0,1.469066121E0
1.228073533E1,-2.581848669E-1,-8.582858884E-1,1.558854829E0,1.798149735E0
1.229076133E1,-3.529809869E-1,-9.963662781E-1,1.696088396E0,1.998513744E0
1.230078733E1,-4.650023098E-1,-9.668199319E-1,1.667061648E0,1.982438515E0
1.231081433E1,-5.727996773E-1,-7.864117675E-1,1.598786634E0,1.871539911E0
1.232084033E1,-6.115967571E-1,-6.326976773E-1,1.726498595E0,1.937822062E0
1.233086733E1,-4.978337679E-1,-6.782972617E-1,1.928892948E0,2.104412897E0
1.234089333E1,-2.507523615E-1,-9.011630823E-1,2.067516398E0,2.269272065E0
1.235092033E1,-3.525096282E-2,-9.856528634E-1,2.001773813E0,2.231558334E0
1.236094633E1,-8.787999675E-4,-9.684653384E-1,1.896587082E0,2.129546534E0
1.237097333E1,-2.392457354E-1,-8.761937173E-1,1.680355877E0,1.910117752E0
1.238099933E1,-7.118749706E-1,-6.033249204E-1,1.516306395E0,1.780435906E0
1.239102633E1,-1.156815922E0,-2.530997262E-1,1.270439748E0,1.736749752E0
1.240105233E1,-1.300194474E0,1.725815932E-1,9.063956094E-1,1.594315865E0
1.241107933E1,-1.150434709E0,4.500951990E-1,5.670653129E-1,1.359282450E0
1.242110533E1,-8.566906949E-1,6.202403305E-1,2.412023234E-1,1.084802090E0
1.243113233E1,-4.824403149E-1,6.395659630E-1,-8.487876713E-2,8.056039247E-1
1.244115833E1,-6.673624568E-2,4.489305067E-1,-2.629539657E-1,5.245351412E-1
1.245118433E1,4.047574237E-1,1.890882099E-1,-2.909510189E-1,5.331373356E-1
1.246121133E1,7.932658006E-1,-9.868526755E-2,-2.015868527E-1,8.244068604E-1
1.247123733E1,1.016854922E0,-4.747615320E-1,-6.291428626E-2,1.123988724E0
1.248126433E1,9.926761003E-1,-7.540907713E-1,1.062211043E-1,1.251136145E0
1.249129033E1,8.124932729E-1,-8.239329848E-1,2.470852071E-1,1.183242148E0
1.250131733E1,5.896310337E-1,-7.470043114E-1,3.074705726E-1,1.000109169E0
1.251134333E1,4.005437739E-1,-6.077288239E-1,3.462042832E-1,8.059944442E-1
1.252137033E1,2.727361382E-1,-3.801295726E-1,1.992046970E-1,5.084938587E-1
1.253139633E1,2.235957724E-1,-3.565760013E-2,-3.677547812E-2,2.293882509E-1
1.254142333E1,2.623221009E-1,3.066013840E-1,-4.004939264E-1,5.685179666E-1
1.255144933E1,2.820783808E-1,6.384816699E-1,-8.879914981E-1,1.129493673E0
1.256147633E1,3.321641683E-1,9.287232023E-1,-1.352484369E0,1.673939602E0
1.257150233E1,4.534464575E-1,1.031058978E0,-1.834389079E0,2.152598337E0
1.258152933E1,5.487990497E-1,9.839900614E-1,-2.254826689E0,2.520646789E0
1.259155533E1,5.535441383E-1,8.833369683E-1,-2.471427437E0,2.682284267E0
1.260158233E1,6.351408633E-1,7.394064394E-1,-2.617383295E0,2.792995008E0
1.261160833E1,7.163070139E-1,5.085066906E-1,-2.748860278E0,2.885811432E0
1.262163533E1,7.603242686E-1,2.599155880E-1,-2.710094993E0,2.826705498E0
1.263166133E1,7.819211058E-1,3.219370957E-2,-2.707684770E0,2.818509157E0
1.264168833E1,7.785631230E-1,-1.014746270E-1,-2.646101895E0,2.760129141E0
1.265171433E1,7.946393115E-1,-1.557454311E-1,-2.354072065E0,2.489450454E0
1.266174133E1,7.977834325E-1,-2.234950541E-1,-2.070972102E0,2.230545649E0
1.267176733E1,8.139907448E-1,-2.553518727E-1,-1.852935863E0,2.039891375E0
1.268179433E1,8.675214194E-1,-2.201738356E-1,-1.618096479E0,1.849136595E0
1.269182033E1,8.687125703E-1,-1.107074718E-1,-1.383661723E0,1.637509523E0
1.270184733E1,7.719156428E-1,5.212206205E-2,-1.184832417E0,1.415061245E0
1.271187333E1,6.275525661E-1,1.802011731E-1,-1.114913167E0,1.292024015E0
1.272190033E1,3.971112391E-1,3.161854090E-1,-1.105571070E0,1.216535220E0
1.273192633E1,7.893178336E-2,4.043359491E-1,-9.670540398E-1,1.051147612E0
1.274195333E1,-1.795822453E-1,2.560105798E-1,-6.335364604E-1,7.065123116E-1
1.275197933E1,-2.261637233E-1,8.881748814E-2,-5.151765364E-1,5.696011233E-1
1.276200633E1,-1.430497921E-1,1.267045951E-2,-3.166980636E-1,3.477376124E-1
1.277203233E1,2.890775710E-2,-1.491597121E-1,-2.102190971E-2,1.533825245E-1
1.278205933E1,2.960318839E-1,-4.270808871E-1,1.572684664E-1,5.429238721E-1
1.279208533E1,6.459327038E-1,-5.916296120E-1,1.187896943E-1,8.839488939E-1
1.280211233E1,9.461270012E-1,-5.529191440E-1,3.526046455E-2,1.096411958E0
1.281213833E1,1.047729244E0,-4.503939551E-1,1.415903270E-2,1.140522582E0
1.282216533E1,9.885645575E-1,-3.594734428E-1,2.670774221E-2,1.052233027E0
1.283219133E1,8.374329633E-1,-2.464398755E-1,2.112312502E-1,8.981343002E-1
1.284221833E1,6.816121213E-1,-2.584922112E-1,5.675816220E-1,9.238843027E-1
1.285224433E1,4.032751545E-1,-3.210613656E-1,1.088906506E0,1.204752518E0
1.286227133E1,1.134586416E-2,-2.523139701E-1,1.626462091E0,1.645955650E0
1.287229733E1,-2.735529211E-1,-2.720736121E-1,2.134033738E0,2.168629809E0
1.288232433E1,-4.310054286E-1,-4.891586195E-1,2.449027923E0,2.534320344E0
1.289235033E1,-5.382221675E-1,-5.564393140E-1,2.610494691E0,2.722864363E0
1.290237733E1,-5.508707913E-1,-4.907978864E-1,2.562662712E0,2.666754839E0
1.291240333E1,-4.867405766E-1,-3.432833432E-1,2.318582974E0,2.393864418E0
1.292243033E1,-4.494097591E-1,-1.379412990E-3,2.029490200E0,2.078653773E0
1.293245633E1,-4.326357785E-1,5.123359591E-1,1.864480605E0,1.981400964E0
1.294248333E1,-3.725929137E-1,8.860185014E-1,1.731716065E0,1.980579409E0
1.295251033E1,-2.858623333E-1,8.852704963E-1,1.529776041E0,1.790428960E0
1.296253633E1,-3.415307499E-1,6.677679612E-1,1.411512011E0,1.598412794E0
1.297256333E1,-4.604407507E-1,4.071590944E-1,1.282738781E0,1.422393403E0
1.298258933E1,-5.436105229E-1,1.355385685E-1,1.208901896E0,1.332413936E0
1.299261633E1,-5.713030093E-1,-1.289125402E-1,1.180925893E0,1.318177353E0
1.300264233E1,-4.943247076E-1,-4.277519647E-1,1.277935293E0,1.435425816E0
1.301266933E1,-3.748468691E-1,-6.468893082E-1,1.461775262E0,1.641877848E0
1.302269533E1,-2.962262307E-1,-7.653940970E-1,1.596941838E0,1.795494733E0
1.303272233E1,-3.296056460E-1,-7.379801573E-1,1.637722659E0,1.826305040E0
1.304274833E1,-4.517965925E-1,-5.382269914E-1,1.679707421E0,1.820776064E0
1.305277533E1,-6.519936351E-1,-2.991119047E-1,1.560954564E0,1.717889049E0
1.306280133E1,-8.288298818E-1,-3.868243787E-2,1.307103544E0,1.548216709E0
1.307282833E1,-9.235639847E-1,2.613698453E-1,8.824430752E-1,1.303836804E0
1.308285533E1,-9.360536373E-1,5.041684221E-1,4.092717665E-1,1.139247817E0
1.309288133E1,-8.423612890E-1,6.314301471E-1,1.768022597E-2,1.052895608E0
1.310290833E1,-6.343521470E-1,6.515660575E-1,-3.598551929E-1,9.779758348E-1
1.311293433E1,-3.033115943E-1,4.921749057E-1,-7.652081555E-1,9.590503544E-1
1.312296133E1,9.931897782E-2,3.188184467E-1,-1.217713650E0,1.262670184E0
1.313298733E1,4.227584425E-1,2.526469690E-1,-1.619372926E0,1.692608598E0
1.314301433E1,6.583589872E-1,1.675695793E-1,-1.967093977E0,2.081099430E0
1.315304033E1,7.874218740E-1,4.016046781E-2,-2.240709171E0,2.375378635E0
1.316306733E1,8.258681940E-1,-8.237838808E-2,-2.334820692E0,2.477949179E0
1.317309433E1,8.253675992E-1,-3.045283268E-1,-2.279701914E0,2.443565017E0
1.318312021E1,8.534108455E-1,-5.576289301E-1,-2.148905547E0,2.378456462E0
1.319314721E1,8.938792057E-1,-7.333420727E-1,-2.052268614E0,2.355550274E0
1.320317321E1,9.035619756E-1,-8.298554834E-1,-2.007302940E0,2.352519811E0
1.321320021E1,8.333528493E-1,-8.723866682E-1,-1.844717601E0,2.204204731E0
1.322322621E1,6.380277798E-1,-8.606595656E-1,-1.578238349E0,1.907524737E0
1.323325321E1,4.923278104E-1,-7.381334274E-1,-1.326729138E0,1.596069496E0
1.324327921E1,4.426084971E-1,-4.835470832E-1,-1.211941863E0,1.377869059E0
1.325330621E1,4.220048095E-1,-1.481135904E-1,-1.047287779E0,1.138787683E0
1.326333321E1,3.446340135E-1,8.991965175E-2,-9.189408106E-1,9.855507903E-1
1.327335921E1,2.393298988E-1,3.218288492E-1,-7.675470418E-1,8.660144744E-1
1.328338621E1,3.264091194E-2,6.658831112E-1,-6.616609830E-1,9.392874977E-1
1.329341221E1,-2.121209771E-1,9.877021663E-1,-5.299243838E-1,1.140776372E0
1.330343921E1,-3.522601714E-1,1.069099282E0,-4.026006782E-1,1.195469702E0
1.331346521E1,-3.111075407E-1,8.938660495E-1,-3.148573601E-1,9.974565522E-1
1.332349221E1,-2.204102824E-1,6.311506502E-1,-2.513063121E-1,7.142035413E-1
1.333351821E1,-8.017438978E-2,4.160468622E-1,-1.944228441E-1,4.661793288E-1
1.334354521E1,4.200435072E-2,2.229572564E-1,-1.401074731E-1,2.666540975E-1
1.335357221E1,5.198912926E-2,6.670368399E-2,-2.259539545E-2,8.753743722E-2
1.336359821E1,-3.246849217E-2,-1.057056357E-1,2.449404484E-1,2.687446886E-1
1.337362521E1,-1.753288344E-1,-1.685708418E-1,5.484466088E-1,5.999583415E-1
1.338365121E1,-2.964134147E-1,-1.006075580E-1,7.626236862E-1,8.243650162E-1
1.339367821E1,-3.885509153E-1,-1.153125744E-2,9.017078966E-1,9.819276524E-1
1.340370421E1,-4.737570535E-1,2.541627500E-2,1.016895121E0,1.122126294E0
1.341373121E1,-5.648375968E-1,4.971353911E-2,1.141839010E0,1.274876179E0
1.342375821E1,-5.374901692E-1,2.496181844E-2,1.247199989E0,1.358317557E0
1.343378421E1,-4.188604693E-1,-1.008986579E-1,1.573758212E0,1.631667718E0
1.344381121E1,-2.053980678E-1,-4.196440693E-1,2.021660194E0,2.074945650E0
1.345383721E1,3.847672552E-2,-8.091862339E-1,2.379717953E0,2.513825840E0
1.346386421E1,1.430664566E-1,-1.055574672E0,2.527853068E0,2.743127236E0
1.347389121E1,-1.511027967E-1,-1.014855393E0,2.621051254E0,2.814724356E0
1.348391721E1,-6.972615362E-1,-7.041610314E-1,2.730446811E0,2.904712756E0
1.349394421E1,-1.051092343E0,-2.277066756E-1,2.388063099E0,2.619062964E0
1.350397021E1,-1.299255411E0,3.698820714E-1,1.829780304E0,2.274417141E0
1.351399721E1,-1.360041018E0,8.897941947E-1,1.154514019E0,1.993576661E0
1.352402321E1,-1.219557496E0,1.102436232E0,3.857782388E-1,1.688641756E0
1.353405021E1,-9.800496959E-1,1.019415929E0,-1.442104644E-1,1.421443949E0
1.354407721E1,-6.320567494E-1,6.309426355E-1,-4.681912351E-1,1.008358754E0
1.355410321E1,-2.502730360E-1,4.860726418E-4,-6.433580285E-1,6.903233892E-1
1.356413021E1,9.560131811E-2,-6.255048712E-1,-5.067050904E-1,8.106454247E-1
1.357415621E1,4.472547678E-1,-1.090498337E0,-1.838294435E-1,1.192902643E0
1.358418321E1,5.938989164E-1,-1.471277572E0,1.588378590E-1,1.594554195E0
1.359420921E1,5.551393318E-1,-1.751932521E0,5.460077351E-1,1.917178052E0
1.360423621E1,6.133905367E-1,-1.818557450E0,6.579842538E-1,2.028877135E0
1.361426321E1,6.508343516E-1,-1.768416992E0,7.595609146E-1,2.031702929E0
1.362428921E1,6.240706223E-1,-1.576154401E0,5.732347101E-1,1.789504085E0
1.363431621E1,4.518800616E-1,-1.133005695E0,3.295496589E-1,1.263526997E0
1.364434221E1,1.655998716E-1,-5.889604311E-1,-1.416581547E-1,6.279846652E-1
1.365436921E1,1.031415220E-1,-1.307520377E-1,-7.036182636E-1,7.230580404E-1
1.366439621E1,3.127921966E-1,1.642156529E-1,-1.303558962E0,1.350581988E0
1.367442221E1,4.619141029E-1,3.591198324E-1,-1.819227834E0,1.911000158E0
1.368444921E1,6.258595048E-1,4.506955618E-1,-2.252131122E0,2.380529605E0
1.369447521E1,7.481952430E-1,4.640168347E-1,-2.635595033E0,2.778753124E0
1.370450221E1,7.510153551E-1,4.034566375E-1,-2.809287159E0,2.935795576E0
1.371452821E1,7.391278195E-1,2.682323203E-1,-2.830725390E0,2.937901419E0
1.372455521E1,7.142345414E-1,1.330501397E-1,-2.774785663E0,2.868321599E0
1.373458221E1,7.043235840E-1,1.012215156E-1,-2.658851749E0,2.752418959E0
1.374460821E1,7.712914525E-1,5.679396909E-2,-2.527702795E0,2.643368585E0
1.375463521E1,7.972915354E-1,5.123158593E-2,-2.431897336E0,2.559770130E0
1.376466121E1,7.996963491E-1,8.918081950E-2,-2.280162674E0,2.417976280E0
1.377468821E1,7.432642861E-1,1.285054827E-1,-2.121128349E0,2.251253191E0
1.378471421E1,6.287418167E-1,2.170966836E-1,-1.939044884E0,2.049961537E0
1.379474121E1,4.418584456E-1,2.914520522E-1,-1.661673439E0,1.743944323E0
1.380476821E1,2.728366372E-1,3.064563365E-1,-1.291647014E0,1.355251757E0
1.381479421E1,2.748371889E-1,2.530914853E-1,-1.079481964E0,1.142309980E0
1.382482121E1,3.102328704E-1,2.514724644E-1,-1.018601924E0,1.094089902E0
1.383484721E1,2.932410809E-1,3.383512899E-1,-9.593719679E-1,1.058709828E0
1.384487421E1,1.205206894E-1,4.501231925E-1,-9.414251089E-1,1.050436748E0
1.385490021E1,-1.791456775E-1,5.838859981E-1,-7.871936864E-1,9.963382621E-1
1.386492721E1,-3.835492071E-1,6.080866735E-1,-6.369600052E-1,9.605193621E-1
1.387495421E1,-3.842188594E-1,4.009165339E-1,-5.710010737E-1,7.964925771E-1
1.388498021E1,-2.692926398E-1,1.629128202E-1,-4.311239809E-1,5.337855372E-1
1.389500721E1,-4.537702471E-2,2.849635980E-2,-3.569169670E-1,3.609166639E-1
1.390503321E1,1.724978319E-1,-4.713323593E-2,-2.182256895E-1,2.821338255E-1
1.391506021E1,2.601636744E-1,-1.432870976E-1,3.198310018E-2,2.987293901E-1
1.392508621E1,2.831032515E-1,-3.355973610E-1,4.226385015E-1,6.094229588E-1
1.393511321E1,1.235594143E-1,-3.346650590E-1,8.471533746E-1,9.192042594E-1
1.394514021E1,1.585633323E-2,-3.999911389E-1,1.226140657E0,1.289831479E0
1.395516621E1,-1.124098704E-1,-7.441548170E-1,1.606956364E0,1.774460799E0
1.396519321E1,-1.051444126E-1,-1.147645661E0,1.877764310E0,2.203212362E0
1.397521921E1,1.754990615E-2,-1.331817678E0,2.033563955E0,2.430931650E0
1.398524621E1,1.512427644E-1,-1.260643907E0,1.986265243E0,2.357402607E0
1.399527221E1,1.593157958E-1,-1.092501886E0,2.025726348E0,2.307056377E0
1.400529921E1,1.875376745E-1,-9.256250551E-1,1.974005971E0,2.188298813E0
1.401532621E1,1.999192268E-1,-7.804296273E-1,1.718973813E0,1.898396447E0
1.402535221E1,1.242848345E-1,-4.831507516E-1,1.626907648E0,1.701678544E0
1.403537921E1,7.668813363E-2,-2.534064492E-2,1.533538724E0,1.535664103E0
1.404540521E1,1.144881170E-1,2.730698497E-1,1.435179201E0,1.465405750E0
1.405543221E1,2.587668476E-1,1.957574528E-1,1.358280129E0,1.396497824E0
1.406545821E1,2.693345205E-1,-1.497657578E-1,1.298029835E0,1.334111059E0
1.407548521E1,1.515119556E-1,-3.890655434E-1,1.337174605E0,1.400843957E0
1.408551221E1,-2.557089731E-2,-4.720535403E-1,1.524379061E0,1.596001233E0
1.409553821E1,-1.485126264E-1,-6.492319952E-1,1.799135631E0,1.918449166E0
1.410556521E1,-1.980787425E-1,-9.095772987E-1,2.121727104E0,2.316957478E0
1.411559121E1,-2.036883420E-1,-1.153720845E0,2.419692442E0,2.688395850E0
1.412561821E1,-2.923404635E-1,-1.220527476E0,2.468279296E0,2.769034660E0
1.413564421E1,-4.950793639E-1,-1.047188742E0,2.320586815E0,2.593613503E0
1.414567121E1,-7.463285194E-1,-7.555905821E-1,1.942052107E0,2.213479110E0
1.415569721E1,-9.902664627E-1,-3.786317718E-1,1.477116017E0,1.818202797E0
1.416572421E1,-1.115211740E0,-4.638800830E-2,8.643628997E-1,1.411726707E0
1.417575121E1,-1.093976626E0,1.771061687E-1,2.119095272E-1,1.128298321E0
1.418577696E1,-8.905668312E-1,4.552760513E-1,-3.733762944E-1,1.067612018E0
1.419580396E1,-4.718859445E-1,6.769365415E-1,-9.667938387E-1,1.271066384E0
1.420582996E1,-5.039912514E-2,7.134683369E-1,-1.542945140E0,1.700663648E0
1.421585696E1,2.429631393E-1,7.413526851E-1,-2.022841916E0,2.168069258E0
1.422588296E1,4.321001004E-1,7.943522863E-1,-2.371429524E0,2.537988188E0
1.423590996E1,5.909119394E-1,7.335618550E-1,-2.607821344E0,2.772728273E0
1.424593696E1,7.020179538E-1,6.555430412E-1,-2.733087414E0,2.896952312E0
1.425596296E1,7.368391462E-1,4.779396034E-1,-2.604769097E0,2.748850713E0
1.426598996E1,8.714406618E-1,4.117927205E-1,-2.328938978E0,2.520503687E0
1.427601596E1,1.016182346E0,5.028707056E-1,-2.060088095E0,2.351482185E0
1.428604296E1,9.312505151E-1,7.143503894E-1,-1.723093176E0,2.084843902E0
1.429606896E1,8.054570259E-1,8.151777296E-1,-1.234767639E0,1.684614755E0
1.430609596E1,7.851116391E-1,6.591906805E-1,-1.097645169E0,1.501917960E0
1.431612196E1,7.523229387E-1,5.777407207E-1,-9.582937413E-1,1.348369771E0
1.432614896E1,7.224183775E-1,5.995577055E-1,-9.921280700E-1,1.365897457E0
1.433617596E1,7.520006110E-1,5.420573562E-1,-1.039506889E0,1.392804964E0
1.434620196E1,6.839219177E-1,5.908708627E-1,-1.108338557E0,1.430137030E0
1.435622896E1,5.532050729E-1,7.475821625E-1,-9.587293589E-1,1.335693425E0
1.436625496E1,4.485912220E-1,7.787412438E-1,-7.903324717E-1,1.196786290E0
1.437628196E1,3.799324849E-1,7.592321549E-1,-7.148326385E-1,1.109850377E0
1.438630796E1,3.295438117E-1,7.684595729E-1,-4.959076220E-1,9.721386776E-1
1.439633496E1,1.302373731E-1,6.946938776E-1,-2.730801737E-1,7.577163970E-1
1.440636096E1,7.901152477E-2,5.679267539E-1,-3.508797169E-2,5.744691329E-1
1.441638796E1,1.293059117E-1,2.812896645E-1,-9.018570006E-2,3.224551979E-1
1.442641396E1,9.073409580E-2,9.935004115E-2,2.329133105E-1,2.689827449E-1
1.443644096E1,1.180992843E-1,-6.344009712E-3,4.370898950E-1,4.528081975E-1
1.444646796E1,7.351448424E-2,-2.278609508E-1,7.875240541E-1,8.231155010E-1
1.445649396E1,-9.523623258E-2,-3.124315696E-1,9.790952110E-1,1.032138972E0
1.446652096E1,-3.226905826E-1,-3.320703205E-1,1.059042436E0,1.155842027E0
1.447654696E1,-3.934206227E-1,-1.439674395E-1,1.289152592E0,1.355514963E0
1.448657396E1,-3.027947735E-1,7.445427798E-2,1.278822901E0,1.316288770E0
1.449659996E1,-1.512170367E-1,8.379396245E-2,1.296390275E0,1.307866876E0
1.450662696E1,1.267647117E-2,9.462629490E-2,1.342599066E0,1.345989258E0
1.451665296E1,5.794334896E-2,-9.655536443E-2,1.565687301E0,1.569731535E0
1.452667996E1,-6.703459986E-2,-3.599346419E-1,2.021716327E0,2.054600567E0
1.453670596E1,-1.242583027E-1,-7.350597654E-1,2.569114530E0,2.675089242E0
1.454673296E1,2.658977464E-2,-1.191496928E0,2.864322907E0,3.102372908E0
1.455675996E1,2.195144890E-1,-1.472912746E0,2.784124836E0,3.157373856E0
1.456678596E1,1.589931026E-1,-1.299339611E0,2.742478627E0,3.038873352E0
1.457681296E1,-2.915541592E-1,-5.704849838E-1,2.430666497E0,2.513681874E0
1.458683896E1,-7.498415997E-1,1.497942629E-1,1.730147257E0,1.891589352E0
1.459686596E1,-1.149310363E0,1.019628329E0,1.046534657E0,1.858975801E0
1.460689196E1,-1.403019808E0,1.826303549E0,4.241611165E-1,2.341743344E0
1.461691896E1,-1.641242975E0,1.934956218E0,-5.701503038E-2,2.537909530E0
1.462694496E1,-1.550327542E0,1.676748876E0,-1.340275383E-1,2.287567630E0
1.463697196E1,-1.056806754E0,1.136093901E0,-2.157189882E-1,1.566551802E0
1.464699796E1,-2.551501986E-1,1.477541694E-1,-1.436842149E-1,3.279909633E-1
1.465702496E1,2.902044026E-1,-9.256433277E-1,1.499378121E-1,9.815882603E-1
1.466705196E1,6.928400910E-1,-1.697973977E0,4.630211270E-1,1.891436380E0
1.467707796E1,9.262203017E-1,-2.191688747E0,6.837605345E-1,2.475663967E0
1.468710496E1,7.541879813E-1,-2.400669696E0,7.157828110E-1,2.616172688E0
1.469713096E1,4.468665127E-1,-2.397525648E0,6.181115055E-1,2.515925425E0
1.470715796E1,5.345890000E-3,-2.090680727E0,5.142620319E-1,2.153007181E0
1.471718396E1,-3.049870408E-1,-1.496036291E0,2.765060574E-1,1.551643412E0
1.472721096E1,-3.541792276E-1,-1.001194032E0,-2.513215148E-1,1.091327136E0
1.473723696E1,-2.321575579E-1,-6.383253300E-1,-8.230511516E-1,1.067131462E0
1.474726396E1,-8.529114202E-2,-3.018096821E-1,-1.317030947E0,1.353858995E0
1.475728996E1,-3.865491942E-2,-8.513958950E-2,-1.714980749E0,1.717527852E0
1.476731696E1,6.354958624E-2,6.973974109E-2,-2.049328049E0,2.051498875E0
1.477734296E1,1.784958326E-1,1.163372442E-1,-2.372628788E0,2.382175998E0
1.478736996E1,2.315750290E-1,1.502230466E-1,-2.452380132E0,2.467865934E0
1.479739696E1,1.927031779E-1,1.675448748E-1,-2.393735483E0,2.407317046E0
1.480742296E1,2.088343303E-1,1.326006715E-1,-2.348911312E0,2.361901579E0
1.481744996E1,4.944738116E-1,2.609721981E-2,-2.372508336E0,2.423629761E0
1.482747596E1,7.449786897E-1,-5.835594311E-3,-2.507851498E0,2.616170185E0
1.483750296E1,8.908017430E-1,8.282529809E-2,-2.264196267E0,2.434537433E0
1.484752896E1,9.612026580E-1,4.331462039E-2,-2.142791113E0,2.348901969E0
1.485755596E1,8.720108385E-1,6.411102857E-2,-1.946893017E0,2.134222468E0
1.486758196E1,5.992707534E-1,3.281261542E-1,-1.642607422E0,1.779031015E0
1.487760896E1,3.540370671E-1,5.730532637E-1,-1.443463537E0,1.592896503E0
1.488763496E1,3.286138120E-1,6.915898832E-1,-1.302646796E0,1.511016969E0
1.489766196E1,3.655217296E-1,6.634723042E-1,-1.224188272E0,1.439596665E0
1.490768796E1,2.788888709E-1,5.629270922E-1,-1.096240084E0,1.263490496E0
1.491771496E1,1.056506353E-1,5.309048887E-1,-1.063488075E0,1.193326838E0
1.492774096E1,7.313302651E-2,4.789257728E-1,-1.144378456E0,1.242706878E0
1.493776796E1,1.031054154E-1,3.368253493E-1,-1.252430323E0,1.301024119E0
1.494779396E1,5.545820922E-2,3.155799298E-1,-1.185215995E0,1.227763519E0
1.495782096E1,9.166146420E-2,4.147994684E-1,-1.044065963E0,1.127179736E0
1.496784796E1,2.261348527E-1,4.252472733E-1,-8.556306678E-1,9.818737469E-1
1.497787396E1,3.244092985E-1,3.789239864E-1,-5.635716015E-1,7.526205754E-1
1.498790096E1,4.193097547E-1,3.891511686E-1,-3.462177318E-1,6.686748240E-1
1.499792696E1,4.209014399E-1,3.692252829E-1,-2.430629075E-2,5.604249525E-1
1.500795396E1,3.614575493E-1,2.996348833E-1,4.760317665E-1,6.686096514E-1
1.501797996E1,2.605222549E-1,2.363482025E-1,8.584958035E-1,9.277647130E-1
1.502800696E1,3.131374016E-2,1.411734023E-1,1.424746014E0,1.432065531E0
1.503803296E1,-1.493931440E-1,-1.053342096E-1,1.870587437E0,1.879497531E0
1.504805996E1,-1.924860270E-1,-4.915338316E-1,2.408738269E0,2.465902761E0
1.505808596E1,-2.188721723E-1,-8.505191781E-1,2.883521070E0,3.014296213E0
1.506811296E1,-2.137535197E-1,-1.176350081E0,3.292414522E0,3.502782246E0
1.507813896E1,-2.721331441E-1,-1.393605206E0,3.534064157E0,3.808648236E0
1.508816596E1,-3.395443777E-1,-1.331332651E0,3.396703706E0,3.664059644E0
1.509819196E1,-3.337624316E-1,-9.674803749E-1,3.068052764E0,3.234248506E0
1.510821896E1,-4.451093513E-1,-5.573917524E-1,2.504567116E0,2.604162887E0
1.511824496E1,-5.471869723E-1,-2.741845849E-1,1.861286271E0,1.959330843E0
1.512827196E1,-6.222183705E-1,-9.033008974E-2,1.466472330E0,1.595573978E0
1.513829796E1,-6.054531607E-1,-9.850175634E-2,1.078958638E0,1.241139745E0
1.514832496E1,-5.262706049E-1,-2.808213574E-1,9.316479796E-1,1.106250126E0
1.515835196E1,-3.519212522E-1,-5.365348072E-1,8.529543972E-1,1.067356253E0
1.516837796E1,-1.924947247E-1,-8.831587744E-1,7.238180548E-1,1.157988003E0
1.517840496E1,-1.024296235E-1,-1.227749811E0,8.768911439E-1,1.512216752E0
1.518842696E1,-4.382817037E-2,-1.413635428E0,9.389032048E-1,1.697593962E0
1.519845396E1,1.141168188E-1,-1.524050009E0,9.342920905E-1,1.791271277E0
1.520847996E1,2.084830588E-1,-1.550111488E0,8.243053794E-1,1.767990432E0
1.521850696E1,6.211460643E-2,-1.324465827E0,6.030367988E-1,1.456612966E0
1.522853296E1,-1.247350701E-1,-9.634236498E-1,3.724360621E-1,1.040409817E0
1.523855996E1,-2.107636922E-1,-6.070913313E-1,1.504102671E-1,6.600033840E-1
1.524858596E1,-2.673376963E-1,-3.157312630E-1,-1.413780731E-1,4.371995356E-1
1.525861296E1,-3.104701942E-1,-1.227095398E-1,-3.421960169E-1,4.780664040E-1
1.526863896E1,-3.085523075E-1,-1.021024352E-3,-5.436653405E-1,6.251220452E-1
1.527866596E1,-3.014309835E-1,3.091644013E-2,-7.717728245E-1,8.291258992E-1
1.528869196E1,-3.226177847E-1,9.040585686E-2,-9.239676619E-1,9.828385901E-1
1.529871896E1,-3.808950828E-1,7.215120591E-2,-1.082479831E0,1.149804090E0
1.530874496E1,-2.876917078E-1,-3.028275727E-2,-1.215608068E0,1.249554536E0
1.531877196E1,-2.393864706E-2,-6.707997059E-2,-1.441015892E0,1.442774959E0
1.532879796E1,2.293910940E-1,-1.031936535E-1,-1.625772704E0,1.645115828E0
1.533882496E1,3.752933040E-1,-1.348763530E-1,-1.769623564E0,1.814002275E0
1.534885196E1,4.892530520E-1,-1.560877491E-1,-1.991172227E0,2.056331386E0
1.535887796E1,5.442001415E-1,-2.591254464E-1,-2.071687217E0,2.157588403E0
1.536890496E1,5.806510992E-1,-4.357291017E-1,-2.045842524E0,2.170826382E0
1.537893096E1,5.711022305E-1,-5.174021329E-1,-2.049695839E0,2.189775275E0
1.538895796E1,4.846181104E-1,-5.625212954E-1,-1.880068113E0,2.021371076E0
1.539898396E1,3.977876157E-1,-6.402253827E-1,-1.802269739E0,1.953535190E0
1.540901096E1,3.089548883E-1,-6.119255899E-1,-1.684078215E0,1.818247916E0
1.541903696E1,2.187259188E-1,-4.812770844E-1,-1.495089188E0,1.585799590E0
1.542906396E1,6.174173679E-2,-3.233453611E-1,-1.320029399E0,1.360456496E0
1.543908996E1,-1.341364792E-1,-2.188339096E-1,-1.167507117E0,1.195388533E0
1.544911696E1,-2.641228606E-1,-1.729117417E-1,-9.967181343E-1,1.045517286E0
1.545914296E1,-2.909458661E-1,-6.256604802E-2,-9.082819211E-1,9.557928937E-1
1.546916996E1,-2.682042902E-1,5.650021959E-2,-8.166934741E-1,8.614604150E-1
1.547919696E1,-2.726328617E-1,1.660427433E-1,-6.831822449E-1,7.540801348E-1
1.548922296E1,-1.911845464E-1,2.248472593E-1,-5.417638260E-1,6.169407297E-1
1.549924996E1,-5.282210167E-2,1.716339240E-1,-3.342841494E-1,3.794657703E-1
1.550927596E1,4.611812275E-2,1.236642622E-1,-4.555097938E-2,1.396231453E-1
1.551930296E1,-5.838857789E-2,1.456570107E-1,3.536735165E-1,3.869239552E-1
1.552932896E1,-3.089737821E-1,6.937127514E-2,7.439605433E-1,8.085508406E-1
1.553935596E1,-5.270844277E-1,-7.741519835E-2,1.035192813E0,1.164231621E0
1.554938196E1,-7.629718148E-1,-2.284428949E-1,1.263241825E0,1.493349274E0
1.555940896E1,-9.375474548E-1,-3.439857034E-1,1.379458745E0,1.703005526E0
1.556943496E1,-1.053346664E0,-3.395179190E-1,1.534125200E0,1.891653177E0
1.557946196E1,-9.996455428E-1,-3.495436646E-1,1.672030027E0,1.979180738E0
1.558948896E1,-7.234083112E-1,-3.757544301E-1,1.688834340E0,1.875279287E0
1.559951496E1,-4.093939003E-1,-3.059554494E-1,1.691233453E0,1.766771828E0
1.560954196E1,-1.647875837E-1,-2.921302379E-1,1.659283097E0,1.692842408E0
1.561956796E1,1.938947674E-2,-4.644274920E-1,1.830525824E0,1.888622154E0
1.562959496E1,1.651966330E-2,-6.013957047E-1,2.117139963E0,2.200961453E0
1.563962096E1,6.618856257E-2,-6.123861312E-1,2.311710742E0,2.392363737E0
1.564964796E1,6.044579281E-2,-4.673063321E-1,2.502430544E0,2.546406788E0
1.565967496E1,1.105715332E-1,-3.247228189E-1,2.495986912E0,2.519448678E0
1.566970096E1,2.610000089E-1,-3.857138829E-1,2.273548304E0,2.320758086E0
1.567972796E1,1.159227588E-1,-4.133624055E-1,1.951922207E0,1.998576210E0
1.568975396E1,-2.359596551E-1,-7.544906295E-2,1.437541476E0,1.458730618E0
1.569978096E1,-4.053056367E-1,3.010547518E-1,5.737323081E-1,7.642482477E-1
1.570980696E1,-4.729428652E-1,5.498237012E-1,-2.133081812E-1,7.559639120E-1
1.571983396E1,-4.434285691E-1,7.778222807E-1,-9.392768419E-1,1.297643010E0
1.572985996E1,-3.572578597E-1,7.626652014E-1,-1.303972360E0,1.552300004E0
1.573988696E1,-7.697713226E-2,6.272339659E-1,-1.356576836E0,1.496545568E0
1.574991396E1,1.410498981E-1,4.317634470E-1,-1.100021478E0,1.190110079E0
1.575993996E1,1.280778502E-1,1.117866394E-1,-7.223352009E-1,7.420703005E-1
1.576996696E1,2.099384308E-1,-2.306613285E-1,-5.653772217E-1,6.457013211E-1
1.577999296E1,3.658268081E-1,-3.736216947E-1,-3.720220792E-1,6.417342532E-1
1.579001996E1,3.343051628E-1,-3.967703464E-1,-1.584431720E-1,5.424858417E-1
1.580004596E1,1.300569865E-1,-4.306329609E-1,5.975971341E-2,4.537959785E-1
1.581007296E1,-1.324374976E-1,-4.568459556E-1,2.519302100E-1,5.382534242E-1
1.582009996E1,-3.512756465E-1,-2.787849731E-1,4.953544754E-1,6.682003422E-1
1.583012596E1,-4.895600308E-1,1.053199387E-1,4.522587419E-1,6.747586849E-1
1.584015296E1,-5.172414076E-1,5.823768683E-1,2.022271228E-1,8.047343037E-1
1.585017896E1,-4.562510014E-1,1.084618377E0,-7.028060853E-2,1.178771125E0
1.586020596E1,-3.185584284E-1,1.584048581E0,-4.624130166E-1,1.680629399E0
1.587023196E1,-1.223255056E-1,1.885994704E0,-8.043254435E-1,2.053990987E0
1.588025896E1,1.982615411E-1,2.044114964E0,-1.166068702E0,2.361658282E0
1.589028596E1,6.644789755E-1,2.045258094E0,-1.476379268E0,2.608506991E0
1.590031196E1,9.990872799E-1,1.895585600E0,-1.595173640E0,2.671329089E0
1.591033896E1,1.160893186E0,1.652391276E0,-1.613018172E0,2.584549775E0
1.592036496E1,1.221548912E0,1.397204021E0,-1.920984589E0,2.671056460E0
1.593039196E1,1.166760428E0,1.228100936E0,-1.936022458E0,2.572497767E0
1.594041796E1,1.057132663E0,9.767286236E-1,-1.959614804E0,2.431382004E0
1.595044496E1,8.983868243E-1,6.831393410E-1,-1.799964182E0,2.124535079E0
1.596047196E1,8.503372566E-1,5.933939362E-1,-1.633971670E0,1.935214001E0
1.597049796E1,9.197671683E-1,5.869724144E-1,-1.639376836E0,1.969280241E0
1.598052496E1,9.054247523E-1,5.357557023E-1,-1.503748330E0,1.835234915E0
1.599055096E1,7.928282095E-1,4.748841043E-1,-1.340433258E0,1.628143974E0
1.600057796E1,6.739844285E-1,4.690861149E-1,-1.234335530E0,1.482525208E0
1.601060496E1,6.315467991E-1,5.345421858E-1,-1.180980272E0,1.441978193E0
1.602063096E1,5.847729477E-1,5.738315646E-1,-1.173760130E0,1.431417098E0
1.603065796E1,4.279558133E-1,5.821479498E-1,-1.074579073E0,1.294898683E0
1.604068396E1,1.979507616E-1,5.137824140E-1,-8.170027918E-1,9.852159331E-1
1.605071096E1,-3.609581240E-2,3.075577692E-1,-6.568072093E-1,7.261476428E-1
1.606073696E1,-1.872374931E-1,1.163395282E-1,-4.046203065E-1,4.607714803E-1
1.607076396E1,-2.718700925E-1,-7.950641848E-3,-2.274572736E-1,3.545608145E-1
1.608079096E1,-2.235375195E-1,-7.455802951E-2,-1.665234393E-1,2.885445862E-1
1.609081696E1,-8.695365161E-2,-1.363884430E-1,7.484962285E-2,1.782279746E-1
1.610084396E1,3.501678184E-2,-2.400708324E-1,2.181894368E-1,3.262925220E-1
1.611086996E1,7.825145982E-2,-2.642764962E-1,3.697264624E-1,4.611540029E-1
1.612089696E1,6.194891095E-2,-2.481094383E-1,4.775415176E-1,5.417027432E-1
1.613092296E1,-3.068838045E-3,-2.635846244E-1,7.529927373E-1,7.977996831E-1
1.614094996E1,-1.653050988E-1,-4.351498985E-1,1.178392879E0,1.267000784E0
1.615097696E1,-3.323270132E-1,-8.357961814E-1,1.620935302E0,1.853760436E0
1.616100296E1,-4.537370642E-1,-1.293322534E0,2.066814732E0,2.479976539E0
1.617102996E1,-5.796419428E-1,-1.607285124E0,2.602782213E0,3.113490886E0
1.618105596E1,-6.798869734E-1,-1.862974947E0,3.019748915E0,3.612728257E0
1.619108283E1,-5.316794986E-1,-1.982621697E0,3.151626433E0,3.761146242E0
1.620110883E1,-3.274054849E-1,-1.729003834E0,3.003577856E0,3.481110246E0
1.621113583E1,-1.785528430E-1,-1.131859421E0,2.557203752E0,2.802191624E0
1.622116283E1,-1.150330044E-2,-4.473858916E-1,1.849073192E0,1.902461072E0
1.623118883E1,9.074586332E-2,1.074437388E-1,1.124123116E0,1.132886468E0
1.624121583E1,9.686380506E-2,2.153797035E-1,6.517423511E-1,6.932092798E-1
1.625124183E1,7.496393591E-2,-1.874904217E-2,3.888661534E-1,3.964694232E-1
