"Time (s)","Linear Acceleration x (m/s^2)","Linear Acceleration y (m/s^2)","Linear Acceleration z (m/s^2)","Absolute acceleration (m/s^2)"
2.334745834E-2,2.408794110E-1,-1.668444514E-2,3.758005500E-2,2.443635035E-1
3.337345834E-2,1.813106091E-1,-1.206119791E-1,2.904247695E-1,3.629977042E-1
4.340045832E-2,1.376713769E-1,-2.643061343E-1,3.009129202E-1,4.235088266E-1
5.342745833E-2,1.640019737E-1,-2.152637824E-1,1.216162384E-2,2.708930573E-1
6.345445832E-2,1.393075740E-1,3.057070524E-2,-2.523132026E-1,2.898329181E-1
7.348045832E-2,1.119117607E-1,2.537846544E-1,-2.562705982E-1,3.776314506E-1
8.350745833E-2,3.680062115E-2,4.097757965E-1,-9.176269412E-2,4.215339621E-1
9.353445834E-2,2.785248086E-2,4.565041128E-1,2.504830241E-2,4.580384079E-1
1.035614583E-1,1.714229675E-1,3.819503590E-1,6.404513776E-2,4.235253124E-1
1.135874583E-1,3.921309462E-1,3.728371811E-1,8.028168619E-2,5.470094988E-1
1.236144583E-1,4.740096532E-1,3.104447588E-1,6.609224796E-2,5.704640960E-1
1.336414583E-1,6.507014005E-1,-1.195702976E-1,3.866529822E-2,6.627249610E-1
1.436674583E-1,7.987600636E-1,-5.364899299E-1,-1.265623981E-1,9.704932379E-1
1.536944583E-1,9.053830178E-1,-9.351215181E-1,-3.752240145E-1,1.354608328E0
1.637214583E-1,9.368122405E-1,-7.463976628E-1,-4.403731066E-1,1.276187728E0
1.737484583E-1,8.243843168E-1,-5.825841156E-1,-6.740909940E-1,1.213842009E0
1.837744583E-1,8.039899595E-1,-5.038408318E-1,-6.651722360E-1,1.158753443E0
1.938014583E-1,6.753238794E-1,-3.934857461E-1,-4.310175616E-1,8.925634503E-1
2.038284583E-1,4.782197946E-1,-1.869886941E-1,8.097750485E-2,5.198233354E-1
2.138554583E-1,2.085137567E-1,2.599525899E-2,5.403587401E-1,5.797769469E-1
2.238814583E-1,1.754556459E-1,2.040149090E-1,2.891395515E-1,3.949790463E-1
2.339084583E-1,4.725563277E-1,3.405263445E-1,1.073414308E-1,5.922751531E-1
2.439354583E-1,5.647790515E-1,1.726036665E-1,-3.344414395E-1,6.786887941E-1
2.539624583E-1,7.270229137E-1,-1.912244171E-1,-9.277894020E-1,1.194119872E0
2.639884583E-1,9.510366158E-1,-6.983382279E-1,-1.099761862E0,1.612954766E0
2.740154583E-1,1.871380612E0,-1.091985065E0,-6.800650942E-1,2.270899669E0
2.840424583E-1,2.578166897E0,-1.631671375E0,-1.723867348E0,3.504427865E0
2.940684583E-1,2.785205401E0,-2.647957509E0,-3.378178557E0,5.116750772E0
3.040954583E-1,2.693010013E0,-3.747842162E0,-3.693225367E0,5.910882964E0
3.141224583E-1,1.633862034E0,-4.415307968E0,-3.820335649E0,6.062954237E0
3.241498333E-1,1.058419123E0,-4.499802866E0,-4.748219191E0,6.626768621E0
3.341758333E-1,1.376401382E0,-3.957006714E0,-6.335896701E0,7.595786325E0
3.442028333E-1,1.548546773E0,-3.205943558E0,-7.307340830E0,8.128548530E0
3.542298333E-1,2.139455569E0,-2.860594137E0,-7.005081296E0,7.863296568E0
3.642568333E-1,2.951056995E0,-2.897012935E0,-6.492374623E0,7.697554780E0
3.742828333E-1,4.281954029E0,-2.959829281E0,-6.104193764E0,8.022275312E0
3.843098333E-1,5.646438639E0,-3.870448334E0,-5.596577677E0,8.842189848E0
3.943368333E-1,6.137389576E0,-4.647900851E0,-4.645754923E0,8.991861428E0
4.043628333E-1,6.437702572E0,-4.726414340E0,-5.020710551E0,9.433479811E0
4.143898333E-1,6.256100918E0,-4.432612218E0,-4.599441467E0,8.941012895E0
4.244168333E-1,5.777553095E0,-4.210178288E0,-4.482435173E0,8.437887535E0
4.344438333E-1,4.926322457E0,-3.991399451E0,-3.698811797E0,7.340376778E0
4.444698333E-1,4.850099908E0,-3.048403488E0,-2.254609172E0,6.156256611E0
4.544968333E-1,4.533697128E0,-1.960238848E0,-3.113509603E0,5.838740279E0
4.645238333E-1,3.956909650E0,-1.682269086E0,-2.336438032E0,4.893475854E0
4.745508333E-1,3.823598980E0,-1.603880144E0,-8.624298102E-1,4.235106357E0
4.845768333E-1,4.711324430E0,-2.970789594E0,1.761824548E-1,5.572540619E0
4.946038333E-1,4.384917650E0,-3.787093644E0,2.874824506E-1,5.801053975E0
5.046308333E-1,2.811955243E0,-2.623065912E0,5.465924567E-1,3.884112560E0
5.146568333E-1,1.402699673E0,-1.272950688E0,4.088034046E-1,1.937805473E0
5.246838333E-1,1.866659278E-1,-2.571707770E-1,-4.463244027E-1,5.478927355E-1
5.347108333E-1,-1.119020836E0,3.838020626E-1,-9.289617687E-1,1.504154787E0
5.447378333E-1,-1.761642700E0,3.705453649E-1,-1.647902076E0,2.440547095E0
5.547638333E-1,-1.033192481E0,-5.368106496E-1,-2.494069026E0,2.752459388E0
5.647908333E-1,-7.275538409E-1,-1.836713055E0,-2.175365367E0,2.938547927E0
5.748178333E-1,-1.124600834E0,-2.257730416E0,-1.333392041E0,2.853069926E0
5.848438333E-1,-1.693436683E0,-1.431521183E0,-8.966354370E-1,2.391847781E0
5.948708333E-1,-2.478309610E0,-5.214079142E-2,-4.324717641E-2,2.479235266E0
6.048978333E-1,-3.011167542E0,6.963378954E-1,7.109372234E-1,3.171348004E0
6.149248333E-1,-5.063564794E0,1.042180528E0,2.997860448E0,5.976035136E0
6.249508333E-1,-6.725329449E0,8.275461987E-1,5.077453101E0,8.467314740E0
6.349778333E-1,-7.463115917E0,-1.501170292E-1,5.064493332E0,9.020517005E0
6.450048333E-1,-8.429239081E0,-9.439996380E-1,5.804998171E0,1.027819102E1
6.550308333E-1,-8.969946315E0,-3.439594641E-1,6.332432225E0,1.098535129E1
6.650578333E-1,-9.838689948E0,1.589687490E0,7.677055013E0,1.258030603E1
6.750848333E-1,-1.082649400E1,3.328527510E0,1.071867602E1,1.559429650E1
6.851108333E-1,-1.168235447E1,3.834966552E0,1.223168985E1,1.734354667E1
6.951378333E-1,-1.246967854E1,3.904433521E0,1.211441225E1,1.781843058E1
7.051648333E-1,-1.258516456E1,3.495106498E0,1.383979461E1,1.903003025E1
7.151918333E-1,-1.218748724E1,2.635961654E0,1.516084084E1,1.962993209E1
7.252178333E-1,-1.288609152E1,1.138081151E0,1.574179914E1,2.037525026E1
7.352448333E-1,-1.322476926E1,-4.768638253E-2,1.519417464E1,2.014347883E1
7.452718333E-1,-1.305550523E1,-2.969333053E-1,1.366121129E1,1.889875869E1
7.552978333E-1,-1.311726937E1,-7.882663581E-1,1.248040936E1,1.812304437E1
7.653248333E-1,-1.225581312E1,-1.374408651E0,1.123520034E1,1.668303573E1
7.753518333E-1,-1.066002260E1,-1.840109849E0,9.356496386E0,1.430266097E1
7.853788333E-1,-9.191884986E0,-2.132130323E0,8.072844270E0,1.241803301E1
7.954048333E-1,-7.738120995E0,-2.547509361E0,7.190283666E0,1.086593299E1
8.054318333E-1,-5.643777571E0,-3.048138025E0,5.352925955E0,8.354471077E0
8.154588333E-1,-6.879470825E0,-3.526333553E0,3.712843945E0,8.575975590E0
8.254848333E-1,-1.191204011E1,-4.012559355E0,2.344469182E0,1.278647207E1
8.355118333E-1,8.931621909E0,-1.272836814E0,4.391716792E0,1.003400019E1
8.455388333E-1,1.844380100E1,6.317244083E0,8.623566615E0,2.131776886E1
8.555648333E-1,6.251119675E0,4.240923532E0,1.160386963E0,7.642540644E0
8.655918333E-1,4.706263080E0,-2.100372926E0,-2.693799972E0,5.815241775E0
8.756188333E-1,3.770122100E0,-2.204198572E-1,-2.917346628E0,4.772139657E0
8.856458333E-1,5.526809285E0,4.023707364E0,-3.934356354E0,7.887648683E0
8.956718333E-1,6.284666905E0,6.419780856E0,-4.856268720E0,1.021244193E1
9.056988333E-1,5.530740952E0,6.686464176E0,-5.450979084E0,1.024749099E1
9.157258333E-1,5.168474368E0,6.293948776E0,-6.024996736E0,1.013052339E1
9.257518333E-1,5.674491241E0,6.320819070E0,-6.446720148E0,1.066362064E1
9.357788333E-1,6.660573875E0,6.299304240E0,-6.626092259E0,1.131147987E1
9.458058333E-1,7.727891876E0,6.253673154E0,-6.212823336E0,1.172296526E1
9.558318333E-1,8.587242542E0,6.232402153E0,-5.717599254E0,1.205298769E1
9.658588333E-1,8.741320767E0,5.732138355E0,-5.351536072E0,1.174338270E1
9.758858333E-1,8.364561859E0,4.943851240E0,-5.000249389E0,1.092749075E1
9.859118333E-1,7.969576594E0,4.548072508E0,-4.903722383E0,1.040411495E1
9.959388333E-1,7.801244026E0,4.510078178E0,-4.676379715E0,1.015227761E1
1.005965833E0,7.632284637E0,4.297650880E0,-4.346017293E0,9.778007884E0
1.015992833E0,7.326513265E0,3.955852766E0,-4.173856553E0,9.313841649E0
1.026018833E0,7.287948539E0,3.702560447E0,-4.305717698E0,9.239174891E0
1.036045833E0,7.427170159E0,3.265491017E0,-4.519917580E0,9.287407770E0
1.046072833E0,7.591925400E0,2.913783042E0,-4.561874861E0,9.324063768E0
1.056098833E0,7.725055391E0,2.905219502E0,-4.364657632E0,9.336327833E0
1.066125833E0,7.804669910E0,2.719586778E0,-4.623238465E0,9.470129807E0
1.076152833E0,7.527391436E0,2.313400879E0,-5.133671156E0,9.400426851E0
1.086178833E0,7.049711924E0,2.062471420E0,-5.957245633E0,9.457325314E0
1.096205833E0,6.561748914E0,2.034860575E0,-6.590804898E0,9.520289679E0
1.106232833E0,6.177962236E0,2.071450405E0,-6.722858416E0,9.362422200E0
1.116258833E0,5.857150657E0,2.210940704E0,-6.586733481E0,9.087328021E0
1.126285833E0,5.786009923E0,2.581769074E0,-6.158133743E0,8.835499622E0
1.136312833E0,6.079415018E0,3.378535237E0,-5.898958833E0,9.119841151E0
1.146338833E0,6.317375060E0,3.953538145E0,-5.506492549E0,9.266129274E0
1.156365833E0,6.425785362E0,3.809151972E0,-4.892606242E0,8.929610972E0
1.166392833E0,6.622844716E0,3.371008117E0,-4.350644780E0,8.611264591E0
1.176418833E0,6.637849841E0,2.907346135E0,-3.607405198E0,8.094880130E0
1.186445833E0,6.335331860E0,2.414757100E0,-2.671396365E0,7.287238171E0
1.196472833E0,5.096524379E0,1.499275648E0,-1.125217715E0,5.430331769E0
1.206499833E0,2.724901897E0,-2.656966022E-1,7.570197147E-1,2.840556966E0
1.216525833E0,-1.521915629E0,-3.532672812E0,2.632178505E0,4.660940684E0
1.226552833E0,-7.336110885E0,-8.171568074E0,4.384572079E0,1.182444587E1
1.236579833E0,-1.353872381E1,-1.174614057E1,5.789120641E0,1.883567834E1
1.246605833E0,-1.906558689E1,-1.340874489E1,7.009214108E0,2.433968211E1
1.256632833E0,-2.219458285E1,-1.279978427E1,7.184690804E0,2.660927972E1
1.266659833E0,-2.391457641E1,-1.136827829E1,7.260236245E0,2.745643361E1
1.276685833E0,-2.559525564E1,-1.114117127E1,7.218141555E0,2.883304313E1
1.286712833E0,-2.580660208E1,-1.049514632E1,6.880678275E0,2.869621126E1
1.296739833E0,-2.419100704E1,-8.948835527E0,7.999190403E0,2.700506482E1
1.306765833E0,-2.225482554E1,-9.229016560E0,1.062610524E1,2.633184610E1
1.316792833E0,-2.006945442E1,-1.071352580E1,1.261952865E1,2.601567103E1
1.326819833E0,-1.790291133E1,-1.092138847E1,1.331499414E1,2.484109557E1
1.336845833E0,-1.601494948E1,-9.709558868E0,1.339383566E1,2.302496414E1
1.346872833E0,-1.409194409E1,-7.540930079E0,1.230375795E1,2.017005142E1
1.356899833E0,-1.212251766E1,-5.113684203E0,1.037761027E1,1.675708792E1
1.366925833E0,-9.793743571E0,-3.269971154E0,8.235527843E0,1.320734808E1
1.376952833E0,-6.818338770E0,-1.946467339E0,6.296510441E0,9.482854128E0
1.386979833E0,-3.395490993E0,-1.302484828E0,5.847424398E0,6.886087271E0
1.397005833E0,2.587977648E-3,-9.235332137E-1,5.839701396E0,5.912278130E0
1.407032833E0,2.888769531E0,-5.322457284E-2,5.048023480E0,5.816387479E0
1.417059833E0,5.142998049E0,1.489850960E0,3.086296077E0,6.180235294E0
1.427085833E0,7.033525661E0,3.222312545E0,8.978873259E-1,7.788451901E0
1.437112833E0,8.849082613E0,5.242751548E0,-1.002197852E0,1.033426860E1
1.447139833E0,1.099592058E1,7.377965840E0,-3.135263292E0,1.360788468E1
1.457165833E0,1.244934193E1,8.573923169E0,-4.476953409E0,1.576519536E1
1.467192833E0,1.302535231E1,7.828654604E0,-4.747355558E0,1.592121291E1
1.477219833E0,1.402379596E1,6.350187296E0,-4.027400758E0,1.591262671E1
1.487245833E0,1.539245490E1,5.020556184E0,-2.018705596E0,1.631590710E1
1.497272833E0,1.520572874E1,3.906798135E0,-8.843820119E-1,1.572448377E1
1.507299833E0,1.477217758E1,3.256139857E0,-2.121769788E0,1.527486774E1
1.517325833E0,1.352649845E1,2.475028737E0,-3.216541051E0,1.412225421E1
1.527352833E0,1.208505805E1,1.781863249E0,-4.214052068E0,1.292214764E1
1.537379833E0,1.065387484E1,1.766797605E0,-4.697537573E0,1.177681970E1
1.547405833E0,9.362151813E0,2.499211944E0,-5.105198724E0,1.095257965E1
1.557432833E0,7.900567170E0,3.771373989E0,-5.300778147E0,1.023427928E1
1.567459833E0,6.805577222E0,4.818622299E0,-4.875278603E0,9.659365592E0
1.577485833E0,6.433881417E0,5.429270711E0,-4.189507211E0,9.403392006E0
1.587512833E0,6.784044850E0,5.359771290E0,-3.831716670E0,9.456873979E0
1.597539833E0,7.253549370E0,4.546178010E0,-3.761408579E0,9.350396112E0
1.607565833E0,7.232514596E0,3.390664994E0,-3.791126176E0,8.841861465E0
1.617592833E0,7.019446735E0,2.387564916E0,-3.872477610E0,8.364758307E0
1.627619833E0,6.885810961E0,1.580862579E0,-4.011907099E0,8.124587229E0
1.637645833E0,6.674838157E0,1.244142772E0,-4.016618785E0,7.888889791E0
1.647672833E0,6.397163826E0,1.520035164E0,-3.846534099E0,7.617744843E0
1.657699833E0,6.253385471E0,2.307660960E0,-3.682545428E0,7.615199917E0
1.667725833E0,6.472291192E0,3.390251303E0,-3.665093828E0,8.174183136E0
1.677752833E0,6.667546679E0,3.815148292E0,-3.219866948E0,8.329410446E0
1.687779833E0,6.866681210E0,3.672331511E0,-2.726816860E0,8.250627840E0
1.697805833E0,7.067941788E0,3.306151385E0,-1.758171500E0,7.998600198E0
1.707832833E0,7.578182105E0,3.068710576E0,-7.830032793E-1,8.213338100E0
1.717859833E0,8.326177812E0,3.157355534E0,-2.159809434E-1,8.907344087E0
1.727885833E0,8.953247252E0,3.162850163E0,2.198225641E-1,9.498030294E0
1.737912833E0,9.103763353E0,3.123814736E0,2.840837565E-1,9.628989006E0
1.747939833E0,8.230226172E0,3.006873347E0,1.119203854E-1,8.763015254E0
1.757965833E0,6.362471126E0,2.635326061E0,-8.429989278E-2,6.887168413E0
1.767992833E0,3.783377153E0,1.432978602E0,-1.448004484E-2,4.045686595E0
1.778018833E0,4.183612633E-1,-1.027355205E0,9.255738920E-1,1.444704778E0
1.788045833E0,-3.648072583E0,-3.810214119E0,2.797042212E0,5.970729465E0
1.798072833E0,-8.059053612E0,-6.235377216E0,5.517565421E0,1.158757103E1
1.808098833E0,-1.259912070E1,-8.502398273E0,8.016730295E0,1.718419574E1
1.818125833E0,-1.667360324E1,-9.982246109E0,9.290209426E0,2.153978350E1
1.828152833E0,-2.037776407E1,-1.066865309E1,9.960911958E0,2.506577735E1
1.838178833E0,-2.381623092E1,-1.144412954E1,1.018201623E1,2.831703394E1
1.848205833E0,-2.651407074E1,-1.206256031E1,9.657646703E0,3.068829497E1
1.858232833E0,-2.729186970E1,-1.225914838E1,9.354491960E0,3.134707946E1
1.868258833E0,-2.652503778E1,-1.247021766E1,9.938566239E0,3.094929816E1
1.878285833E0,-2.455183638E1,-1.246967153E1,1.030594680E1,2.940234544E1
1.888312833E0,-2.157431255E1,-1.168595986E1,9.918236639E0,2.646476975E1
1.898338833E0,-1.806247717E1,-1.003729180E1,8.759444212E0,2.244388939E1
1.908365833E0,-1.460385379E1,-7.791908947E0,7.866151044E0,1.832655785E1
1.918392833E0,-1.134887723E1,-5.002252060E0,7.522128357E0,1.450523889E1
1.928418833E0,-8.075398334E0,-2.024807311E0,7.273436919E0,1.105507972E1
1.938445833E0,-4.518589677E0,1.930567883E-1,6.501500373E0,7.919875674E0
1.948472833E0,-6.675619930E-1,1.986929195E0,4.824037113E0,5.259739605E0
1.958498833E0,2.766039398E0,4.007208276E0,2.617215480E0,5.527975125E0
1.968525833E0,5.407073511E0,5.988160447E0,2.857452428E-1,8.073175325E0
1.978551833E0,7.595298074E0,7.440794756E0,-1.977278073E0,1.081497148E1
1.988578833E0,9.415401821E0,7.921089728E0,-3.396631200E0,1.276442546E1
1.998605833E0,1.039820651E1,6.967355645E0,-3.830398707E0,1.308964085E1
2.008631833E0,1.079145281E1,5.257643822E0,-3.788505161E0,1.258773386E1
2.018658833E0,1.110159614E1,3.702769777E0,-3.598519769E0,1.224358140E1
2.028685833E0,1.121565427E1,2.564290870E0,-3.306958886E0,1.197090078E1
2.038711833E0,1.099462016E1,1.686179119E0,-3.010638369E0,1.152340297E1
2.048738833E0,1.062493580E1,1.294549426E0,-3.189753202E0,1.116869037E1
2.058765833E0,1.013417431E1,1.483318743E0,-3.838498271E0,1.093781479E1
2.068791833E0,9.319522102E0,1.788215956E0,-4.740095070E0,1.060753081E1
2.078818833E0,8.378508638E0,1.935841925E0,-5.922232506E0,1.044125130E1
2.088845833E0,7.633834149E0,2.196357602E0,-6.997864078E0,1.058628888E1
2.098871833E0,6.975364577E0,2.776662619E0,-7.812012843E0,1.083481015E1
2.108898833E0,6.533573520E0,3.299234714E0,-8.239853613E0,1.102123950E1
2.118924833E0,6.167458298E0,3.641892661E0,-8.193222653E0,1.088254664E1
2.128951833E0,6.058517069E0,4.129978462E0,-7.830868360E0,1.072776074E1
2.138978833E0,6.668854117E0,4.582005655E0,-7.575414618E0,1.108401090E1
2.149004833E0,7.328456295E0,4.517779838E0,-7.177257239E0,1.120846233E1
2.159031833E0,7.636515682E0,4.119706074E0,-6.756396875E0,1.099714730E1
2.169058833E0,7.538590608E0,3.541457961E0,-6.309415246E0,1.044897093E1
2.179084833E0,7.388735241E0,2.959582821E0,-5.879034446E0,9.895230414E0
2.189111833E0,7.508355825E0,2.624283302E0,-5.698268359E0,9.784300299E0
2.199138833E0,7.623968727E0,2.348326006E0,-5.819639599E0,9.874600713E0
2.209164833E0,7.439529419E0,1.867347641E0,-6.265264674E0,9.903894518E0
2.219191833E0,6.858357114E0,1.570522071E0,-6.754915191E0,9.753588115E0
2.229218833E0,6.121810840E0,1.647094868E0,-6.838779466E0,9.325148473E0
2.239244833E0,5.570065232E0,1.630352097E0,-6.457354479E0,8.682229064E0
2.249271833E0,5.012485272E0,1.419128741E0,-5.609939150E0,7.655739824E0
2.259298833E0,4.304690343E0,1.107371720E0,-4.511024550E0,6.332927724E0
2.269324833E0,3.416514072E0,1.096304695E0,-2.681496845E0,4.479383632E0
2.279351833E0,2.511567403E0,1.652207966E0,-7.074177843E-1,3.088397951E0
2.289377833E0,5.126207185E-1,1.501991242E0,1.588853969E0,2.245710272E0
2.299404833E0,-3.162709830E0,-2.604349852E-1,3.996596457E0,5.103267883E0
2.309431833E0,-7.477149235E0,-2.704506809E0,6.224410763E0,1.009779219E1
2.319457500E0,-1.205555300E1,-5.118861912E0,8.081632050E0,1.538999292E1
2.329484500E0,-1.669780603E1,-7.904948489E0,9.447531102E0,2.074995857E1
2.339511500E0,-2.033836553E1,-1.038425973E1,1.002649082E1,2.494017804E1
2.349537500E0,-2.277878518E1,-1.213085345E1,1.091081085E1,2.801921578E1
2.359564500E0,-2.463942533E1,-1.300075775E1,1.145693378E1,3.012278730E1
2.369591500E0,-2.522497720E1,-1.294491100E1,1.150748646E1,3.059889606E1
2.379617500E0,-2.435402274E1,-1.143160130E1,1.203305760E1,2.947192574E1
2.389644500E0,-2.233981131E1,-9.211611153E0,1.272434116E1,2.730988479E1
2.399671500E0,-1.923306869E1,-6.594127870E0,1.291154094E1,2.408529309E1
2.409697500E0,-1.603227478E1,-4.088318513E0,1.266735186E1,2.083770587E1
2.419724500E0,-1.323896163E1,-2.174669256E0,1.184511171E1,1.789709370E1
2.429751500E0,-1.066950562E1,-6.441786852E-1,1.102398956E1,1.535518356E1
2.439777500E0,-7.659424489E0,7.237198216E-1,1.035990257E1,1.290419060E1
2.449804500E0,-4.050641102E0,2.030649996E0,8.868033439E0,9.958576696E0
2.459831500E0,-3.589202231E-1,2.858002944E0,6.685150892E0,7.279302645E0
2.469857500E0,2.861872923E0,3.188669128E0,4.319850419E0,6.084327003E0
2.479884500E0,5.151991067E0,3.357246402E0,2.337630279E0,6.578649609E0
2.489911500E0,6.836724755E0,3.370318145E0,7.164277589E-1,7.655920487E0
2.499937500E0,8.047269133E0,3.331677990E0,-6.976383162E-1,8.737580784E0
2.509964500E0,8.720883579E0,3.010974291E0,-1.716247256E0,9.384310376E0
2.519991500E0,9.446342947E0,2.571454293E0,-2.705196195E0,1.015696110E1
2.530017500E0,1.021836019E1,2.764267691E0,-3.366269533E0,1.110800753E1
2.540044500E0,1.071371291E1,3.400136021E0,-3.591006682E0,1.179999569E1
2.550071500E0,1.095781311E1,3.927451670E0,-3.860827033E0,1.226395247E1
2.560097500E0,1.091870342E1,4.325160860E0,-4.436392443E0,1.255414986E1
2.570124500E0,1.060260412E1,4.333377367E0,-4.959466229E0,1.248157357E1
2.580151500E0,1.013524903E1,3.963101559E0,-5.700782077E0,1.228529052E1
2.590177500E0,9.477669405E0,3.772739314E0,-6.634264913E0,1.216853525E1
2.600204500E0,8.902371798E0,3.582565349E0,-7.190038667E0,1.199098220E1
2.610231500E0,8.446632793E0,3.382365456E0,-7.352127578E0,1.169785372E1
2.620257500E0,7.767499160E0,3.216019480E0,-6.973641402E0,1.092284299E1
2.630284500E0,6.989140617E0,3.256228150E0,-6.582041091E0,1.013776964E1
2.640311500E0,6.342511071E0,3.663649273E0,-6.338733185E0,9.686553106E0
2.650337500E0,5.766637512E0,4.233186496E0,-5.944680551E0,9.301247388E0
2.660364500E0,5.313104078E0,4.619470812E0,-5.463082820E0,8.911445417E0
2.670391500E0,5.056887274E0,4.736863314E0,-4.755739880E0,8.403989812E0
2.680417500E0,5.052864389E0,4.833302611E0,-4.179305574E0,8.146094018E0
2.690444500E0,5.311531177E0,4.856095642E0,-4.116204761E0,8.290788260E0
2.700471500E0,5.487090318E0,4.782243262E0,-4.288363747E0,8.447962737E0
2.710497500E0,5.535028131E0,4.575582196E0,-4.302354965E0,8.371543889E0
2.720524500E0,5.828188813E0,4.110720365E0,-4.303988092E0,8.330073244E0
2.730551500E0,6.178114264E0,3.584858627E0,-4.551208370E0,8.469581150E0
2.740577500E0,6.376357094E0,3.175820164E0,-4.781478739E0,8.579411544E0
2.750604500E0,6.560895805E0,2.720572618E0,-4.978669655E0,8.673754704E0
2.760631500E0,6.588394675E0,2.226995696E0,-5.092909631E0,8.619987398E0
2.770657500E0,6.385311520E0,1.703083420E0,-5.083327214E0,8.337440369E0
2.780684500E0,6.211373227E0,1.053739304E0,-4.755568557E0,7.893475545E0
2.790711500E0,5.634553589E0,-1.211987472E-1,-3.978751924E0,6.898793384E0
2.800738500E0,4.704363320E0,-1.925387250E0,-2.683133481E0,5.747813113E0
2.810764500E0,2.440223186E0,-4.043900431E0,-7.460357201E-1,4.781672217E0
2.820791500E0,-1.330489483E0,-6.459534906E0,2.090740954E0,6.918597488E0
2.830818500E0,-6.310908040E0,-9.487048924E0,5.123867714E0,1.249342539E1
2.840844500E0,-1.176093754E1,-1.350868667E1,7.888352922E0,1.957116192E1
2.850871500E0,-1.582830986E1,-1.666500900E1,8.656544327E0,2.456000158E1
2.860898500E0,-1.828188341E1,-1.614414487E1,7.359122602E0,2.547581913E1
2.870924500E0,-2.063594670E1,-1.303837406E1,6.360086632E0,2.522483293E1
2.880951500E0,-2.201016400E1,-9.610211166E0,6.004298762E0,2.475591004E1
2.890978500E0,-2.174767080E1,-7.349795709E0,6.959860684E0,2.398792077E1
2.901004500E0,-2.080799050E1,-7.161433504E0,8.990096989E0,2.377142070E1
2.911031500E0,-1.956701604E1,-8.016437935E0,1.060765611E1,2.365700239E1
2.921058500E0,-1.789384815E1,-7.796292019E0,1.156217664E1,2.268602873E1
2.931084500E0,-1.565794538E1,-6.748461619E0,1.217970577E1,2.095371615E1
2.941111500E0,-1.293844982E1,-5.108212379E0,1.251892029E1,1.871418400E1
2.951138500E0,-9.900711365E0,-3.072001973E0,1.173202305E1,1.565572249E1
2.961165500E0,-7.114971528E0,-1.118400739E0,9.802880430E0,1.216429631E1
2.971191500E0,-4.585819793E0,4.950463271E-1,7.277132360E0,8.615768650E0
2.981218500E0,-2.039930989E0,1.691578731E0,4.976864035E0,5.638433529E0
2.991245500E0,4.730847698E-1,2.700053277E0,2.949408665E0,4.026550431E0
3.001271500E0,2.741947700E0,3.598019540E0,1.233881201E0,4.688974794E0
3.011298500E0,4.583238832E0,4.543613129E0,-2.518518573E-1,6.458632039E0
3.021325500E0,6.114077897E0,5.248604611E0,-1.683361931E0,8.231859224E0
3.031351500E0,7.420466326E0,5.634710879E0,-2.962487133E0,9.776994282E0
3.041378500E0,8.567946730E0,5.847923166E0,-4.103320129E0,1.115549876E1
3.051405500E0,9.564707549E0,6.131497337E0,-4.978395420E0,1.240416507E1
3.061431500E0,1.026990339E1,6.610902947E0,-5.397685221E0,1.335327522E1
3.071458500E0,1.073329289E1,6.979886813E0,-5.511724638E0,1.393920746E1
3.081485500E0,1.108949942E1,7.203606547E0,-5.164088371E0,1.419636409E1
3.091512500E0,1.157688824E1,7.316492307E0,-4.216760206E0,1.432956620E1
3.101538500E0,1.189989545E1,7.339952506E0,-3.055881785E0,1.431156273E1
3.111565500E0,1.168341164E1,7.224951807E0,-1.793487806E0,1.385347013E1
3.121592500E0,1.117926120E1,6.846707706E0,-7.197299740E-1,1.312902505E1
3.131618500E0,1.045137875E1,6.299417092E0,8.787868112E-2,1.220334774E1
3.141645500E0,9.462694101E0,5.874046771E0,3.149702114E-1,1.114209188E1
3.151672500E0,8.434289321E0,5.718603221E0,-1.724873069E-1,1.019163436E1
3.161698500E0,7.433127303E0,5.687370318E0,-1.020955428E0,9.414877196E0
3.171725500E0,6.500691118E0,5.499663586E0,-1.969400704E0,8.739783962E0
3.181752500E0,5.700641159E0,5.225739659E0,-3.000399309E0,8.295062424E0
3.191778500E0,5.069355292E0,4.822870886E0,-3.828900066E0,7.976147088E0
3.201805500E0,4.753546005E0,4.508958436E0,-4.505992436E0,7.951784305E0
3.211832500E0,4.594101790E0,4.256078638E0,-4.862481387E0,7.928663309E0
3.221858500E0,4.636753135E0,4.033939115E0,-5.076260269E0,7.971233451E0
3.231885500E0,4.772920754E0,4.097533140E0,-5.169542069E0,8.142156690E0
3.241912500E0,4.935979718E0,4.368715307E0,-4.952839580E0,8.245009952E0
3.251939500E0,5.323090537E0,4.560255474E0,-4.382804174E0,8.266812885E0
3.261965500E0,5.691538213E0,4.447437541E0,-3.800723503E0,8.162034493E0
3.271992500E0,5.777271844E0,3.859922469E0,-3.327800994E0,7.703903613E0
3.282019500E0,5.593734176E0,3.586802242E0,-2.671900395E0,7.161987439E0
3.292045500E0,4.954018963E0,3.050966907E0,-1.490484798E0,6.006017640E0
3.302072500E0,3.946378230E0,1.646979678E0,6.876910329E-2,4.276818021E0
3.312099500E0,2.422199728E0,-1.171396101E-1,1.805107393E0,3.023108650E0
3.322125958E0,2.571488500E-2,-2.155142772E0,3.929799035E0,4.482033252E0
3.332152958E0,-3.576268775E0,-4.859403997E0,6.626060100E0,8.961483025E0
3.342179958E0,-7.847517137E0,-8.434836620E0,9.399890327E0,1.486902593E1
3.352205958E0,-1.168971026E1,-1.152895042E1,1.138583163E1,1.998006972E1
3.362232958E0,-1.463853830E1,-1.261967717E1,1.249508704E1,2.301456616E1
3.372259958E0,-1.644616409E1,-1.249408716E1,1.264231408E1,2.421583433E1
3.382286958E0,-1.735256905E1,-1.213030732E1,1.213762920E1,2.440446785E1
3.392312958E0,-1.797783989E1,-1.219187733E1,1.111610893E1,2.440107534E1
3.402339958E0,-1.807412248E1,-1.227593573E1,9.448833861E0,2.380447359E1
3.412366958E0,-1.767956523E1,-1.190022289E1,7.485823579E0,2.258804742E1
3.422392958E0,-1.731295300E1,-1.122245107E1,5.676195704E0,2.139862022E1
3.432419958E0,-1.697938689E1,-9.542881063E0,4.695697162E0,2.003536198E1
3.442446958E0,-1.627833146E1,-6.571049495E0,3.921614102E0,1.798726838E1
3.452472958E0,-1.518492201E1,-3.515498663E0,3.516880944E0,1.597839288E1
3.462499958E0,-1.343676825E1,-9.792200491E-1,3.586213135E0,1.394154000E1
3.472526958E0,-1.056914167E1,8.639152953E-1,3.735099033E0,1.124295646E1
3.482553958E0,-7.001012803E0,2.042067854E0,3.781583812E0,8.214900944E0
3.492579958E0,-3.267248105E0,2.910781959E0,3.424845185E0,5.556719026E0
3.502606958E0,2.131567383E-1,3.336589943E0,2.668007319E0,4.277444482E0
3.512633958E0,3.033513846E0,3.751820900E0,1.293582442E0,4.995169852E0
3.522659958E0,4.861960984E0,4.218735980E0,-9.434488302E-1,6.505881461E0
3.532686958E0,5.715117695E0,4.292385754E0,-3.399657719E0,7.914847967E0
3.542713958E0,6.170220523E0,4.284385009E0,-5.678752692E0,9.416783333E0
3.552739958E0,6.529247750E0,4.669990755E0,-7.228870026E0,1.080261319E1
3.562766958E0,6.994487311E0,5.016121071E0,-8.081527970E0,1.180658366E1
3.572793958E0,8.059737736E0,5.193522670E0,-8.601523781E0,1.288092627E1
3.582820958E0,9.308708847E0,5.191177937E0,-8.472179863E0,1.361536707E1
3.592846958E0,9.826399101E0,4.672527570E0,-7.558168255E0,1.324826557E1
3.602873958E0,9.744492474E0,3.931951687E0,-6.250359537E0,1.222629838E1
3.612900958E0,9.613797848E0,3.713745586E0,-5.271283037E0,1.157598550E1
3.622926958E0,9.257206571E0,4.232840926E0,-4.729897526E0,1.122429269E1
3.632953958E0,8.508331443E0,4.849706975E0,-4.483423353E0,1.077090742E1
3.642980958E0,7.652566874E0,5.076287166E0,-4.601547634E0,1.027154866E1
3.653006958E0,6.807776944E0,5.046961040E0,-4.748651885E0,9.714285223E0
3.663033958E0,5.981389956E0,4.990190424E0,-4.825362092E0,9.163140596E0
3.673060958E0,5.542318439E0,4.873269792E0,-5.006622854E0,8.918089737E0
3.683087958E0,5.449153583E0,4.835255289E0,-5.157548845E0,8.925988941E0
3.693113958E0,5.441743407E0,4.752671846E0,-4.942470712E0,8.753769344E0
3.703140958E0,5.520698944E0,4.636719513E0,-4.631463743E0,8.568998838E0
3.713167958E0,5.744860142E0,4.593226169E0,-4.435195518E0,8.589068866E0
3.723193958E0,5.989296561E0,4.619319077E0,-4.254614788E0,8.678221535E0
3.733220958E0,6.111022727E0,4.661170523E0,-4.093923361E0,8.708117931E0
3.743247958E0,6.232155985E0,4.760743050E0,-3.823986651E0,8.725096935E0
3.753273958E0,6.411318766E0,4.973169179E0,-3.619944552E0,8.884898343E0
3.763300958E0,6.546118137E0,5.153436499E0,-3.311560060E0,8.965266334E0
3.773327958E0,6.620905194E0,5.075737528E0,-2.867207923E0,8.821585930E0
3.783354958E0,6.657247394E0,4.664301122E0,-2.223950759E0,8.427372354E0
3.793380958E0,6.382255180E0,3.769238586E0,-1.318288390E0,7.528494204E0
3.803407958E0,5.596415125E0,2.429361106E0,-2.816934147E-1,6.107455183E0
3.813434958E0,4.297710521E0,1.026642722E0,1.386175441E0,4.630960306E0
3.823460958E0,2.238063891E0,-3.342873654E-1,3.309564990E0,4.009226664E0
3.833487958E0,-8.378124475E-1,-1.450447743E0,5.255543502E0,5.516019022E0
3.843514958E0,-4.672614108E0,-2.757354236E0,7.264946762E0,9.067291572E0
3.853541958E0,-8.545393435E0,-4.509692262E0,8.652193998E0,1.297002445E1
3.863567958E0,-1.179775394E1,-5.887822226E0,8.854258568E0,1.588242247E1
3.873594958E0,-1.424459384E1,-6.589566457E0,8.350852477E0,1.777828948E1
3.883621958E0,-1.613115821E1,-7.264415835E0,7.583813558E0,1.924838255E1
3.893647958E0,-1.819884827E1,-8.857704332E0,7.115819374E0,2.145441422E1
3.903674958E0,-1.990063361E1,-1.125641404E1,6.856779535E0,2.386959364E1
3.913701958E0,-2.023204911E1,-1.293337444E1,6.441706161E0,2.486168868E1
3.923728958E0,-1.961993685E1,-1.321857589E1,6.390637164E0,2.450536500E1
3.933754958E0,-1.866938658E1,-1.211865148E1,7.104784509E0,2.336419636E1
3.943781958E0,-1.717441141E1,-9.787825019E0,7.442746557E0,2.112241469E1
3.953808958E0,-1.535781014E1,-7.287481931E0,7.319058065E0,1.850779123E1
3.963834958E0,-1.332181433E1,-5.224836849E0,6.595680891E0,1.575667045E1
3.973861958E0,-1.098426825E1,-3.713633319E0,5.676928360E0,1.291017959E1
3.983888958E0,-8.065511277E0,-2.641545160E0,4.787551072E0,9.744274127E0
3.993915958E0,-5.028237087E0,-1.797255167E0,4.385589495E0,6.909897941E0
4.003941958E0,-1.918428186E0,-8.072532906E-1,3.979037561E0,4.490519401E0
4.013968958E0,1.078134765E0,4.659251466E-2,3.550724921E0,3.711090527E0
4.023995958E0,3.532309992E0,7.631309322E-1,2.841402406E0,4.597080632E0
4.034021958E0,5.670930871E0,1.685090660E0,1.757744946E0,6.171600666E0
4.044048958E0,7.329481312E0,2.645641134E0,5.227916577E-1,7.809867120E0
4.054075958E0,8.394073341E0,3.653724209E0,-7.150969326E-1,9.182675616E0
4.064101958E0,9.046509756E0,4.503891531E0,-2.005820964E0,1.030280037E1
4.074128958E0,9.582408240E0,4.805688550E0,-3.181791926E0,1.118217287E1
4.084155958E0,1.036646665E1,4.470336699E0,-4.037079362E0,1.198939326E1
4.094182958E0,1.138561412E1,3.864484174E0,-4.698781568E0,1.290910512E1
4.104208958E0,1.231274395E1,3.386573405E0,-5.040002854E0,1.372858958E1
4.114235958E0,1.290699765E1,3.167036477E0,-5.035821510E0,1.421197406E1
4.124262958E0,1.314410342E1,3.073670184E0,-4.853900305E0,1.434486846E1
4.134288958E0,1.306682895E1,3.081651926E0,-4.292129354E0,1.409471432E1
4.144315958E0,1.266421541E1,3.140658810E0,-3.604646190E0,1.353660090E1
4.154342958E0,1.186895666E1,3.486845259E0,-3.168926005E0,1.276997706E1
4.164368958E0,1.080522885E1,4.114789443E0,-2.996293979E0,1.194412995E1
4.174395958E0,9.704934890E0,4.477597480E0,-3.019009827E0,1.110626223E1
4.184422958E0,8.564858231E0,4.328024534E0,-3.126618476E0,1.009278633E1
4.194448958E0,7.568957537E0,4.160397725E0,-3.432030244E0,9.293915161E0
4.204475958E0,6.751013929E0,4.085779359E0,-3.793661236E0,8.755663745E0
4.214502958E0,6.202574921E0,3.833726065E0,-4.207304673E0,8.418479899E0
4.224529958E0,5.802160517E0,3.522486085E0,-4.547200103E0,8.170067544E0
4.234555958E0,5.572093046E0,3.404641301E0,-4.614414140E0,7.995787713E0
4.244582958E0,5.526010555E0,3.445073335E0,-4.661438033E0,8.008391066E0
4.254609958E0,5.461264336E0,3.515646890E0,-4.588343452E0,7.952237222E0
4.264635958E0,5.345266103E0,3.533679410E0,-4.318049184E0,7.726856323E0
4.274662958E0,5.218835852E0,3.545238478E0,-4.223794114E0,7.592456798E0
4.284689958E0,4.860344814E0,3.306471228E0,-4.041476761E0,7.133669329E0
4.294715958E0,4.498713822E0,2.743060133E0,-3.536559164E0,6.345869181E0
4.304742958E0,3.809014855E0,1.967994449E0,-2.265021894E0,4.848909207E0
4.314769958E0,2.897759625E0,8.743642697E-1,-6.389404571E-1,3.093504263E0
4.324795375E0,1.622676603E0,-2.620692819E-1,9.144407934E-1,1.880947004E0
4.334822375E0,-3.476415288E-1,-1.272288345E0,2.473364035E0,2.803052250E0
4.344849375E0,-2.875280589E0,-2.013859131E0,4.136099913E0,5.424959866E0
4.354875375E0,-5.573195831E0,-2.966790683E0,6.019814349E0,8.723561401E0
4.364902375E0,-8.492734580E0,-4.800530722E0,7.479934264E0,1.229313029E1
4.374929375E0,-1.085887939E1,-6.766510220E0,7.768179776E0,1.496815083E1
4.384956375E0,-1.266161223E1,-8.329050549E0,7.496494748E0,1.690819153E1
4.394982375E0,-1.458187059E1,-1.028296607E1,7.263258671E0,1.926461180E1
4.405009375E0,-1.712585496E1,-1.344509703E1,7.376121043E0,2.298853418E1
4.415036375E0,-1.870954876E1,-1.636431476E1,7.184728811E0,2.587389303E1
4.425062375E0,-1.902939146E1,-1.675520347E1,6.961179231E0,2.629282409E1
4.435089375E0,-1.907775495E1,-1.456323201E1,6.936610401E0,2.498329490E1
4.445116375E0,-1.910219397E1,-1.110292229E1,6.849336614E0,2.313184191E1
4.455142375E0,-1.870628368E1,-7.309544646E0,6.501609716E0,2.110984180E1
4.465169375E0,-1.716382912E1,-3.845550305E0,6.027864211E0,1.859355894E1
4.475196375E0,-1.436626504E1,-1.560951056E0,5.791362464E0,1.556810903E1
4.485222375E0,-1.063539881E1,-6.316431320E-1,5.795761324E0,1.212854196E1
4.495249375E0,-6.647969617E0,-1.876120073E-1,5.552559838E0,8.663810884E0
4.505276375E0,-2.942028310E0,2.097928351E-1,4.860689800E0,5.685582550E0
4.515302375E0,2.037392128E-1,5.303974235E-1,3.917681850E0,3.958669242E0
4.525329375E0,2.660349805E0,1.011235017E0,2.708606291E0,3.928944564E0
4.535356375E0,4.454428765E0,1.988344806E0,1.027123656E0,4.985020932E0
4.545382375E0,5.788202044E0,3.208844654E0,-8.083214307E-1,6.667334583E0
4.555409375E0,6.588114009E0,4.048981954E0,-2.455660420E0,8.113431405E0
4.565436375E0,7.125290694E0,4.750303139E0,-3.832591413E0,9.382105538E0
4.575462375E0,7.791473914E0,5.676782180E0,-4.915457160E0,1.082102771E1
4.585489375E0,8.520391910E0,6.390082848E0,-5.555044320E0,1.201202541E1
4.595516375E0,9.173914154E0,6.671195927E0,-5.822942691E0,1.275038108E1
4.605542375E0,9.657160215E0,6.620087754E0,-5.696656281E0,1.302068347E1
4.615569375E0,1.005447910E1,6.133270798E0,-5.272839566E0,1.290396830E1
4.625596375E0,1.015640309E1,5.529426498E0,-4.757486444E0,1.250442955E1
4.635622375E0,9.845471549E0,5.030692917E0,-4.308498342E0,1.186610042E1
4.645649375E0,9.333834917E0,4.514194910E0,-3.992652217E0,1.111034210E1
4.655676375E0,8.752900009E0,4.034223874E0,-3.781035636E0,1.035299238E1
4.665702375E0,8.068275840E0,3.756250458E0,-3.566437851E0,9.587803267E0
4.675729375E0,7.379032956E0,3.626161897E0,-3.558548203E0,8.958930895E0
4.685756375E0,6.841672668E0,3.437025520E0,-3.886419126E0,8.586377755E0
4.695782375E0,6.378251592E0,3.308884666E0,-4.209797634E0,8.327857301E0
4.705809375E0,5.994871881E0,3.329278585E0,-4.553978781E0,8.231725670E0
4.715836375E0,5.770366867E0,3.448963780E0,-4.940203747E0,8.342547452E0
4.725862375E0,5.693173095E0,3.547895746E0,-5.269061680E0,8.530111084E0
4.735889375E0,5.641065048E0,3.523929763E0,-5.455489626E0,8.602445170E0
4.745916375E0,5.700694368E0,3.506175862E0,-5.418193746E0,8.610923814E0
4.755942375E0,5.903208005E0,3.337620223E0,-5.133931941E0,8.505576446E0
4.765969375E0,6.232857066E0,3.069223377E0,-4.582254161E0,8.322601309E0
4.775996375E0,6.517003680E0,2.914369810E0,-3.972242804E0,8.169675713E0
4.786022375E0,6.594589800E0,2.902896988E0,-3.577453421E0,8.044476275E0
4.796049375E0,6.331165134E0,3.149920507E0,-3.374145148E0,7.835209418E0
4.806076375E0,5.635877983E0,3.339482561E0,-3.076279212E0,7.237317058E0
4.816102375E0,4.726831246E0,3.195965869E0,-2.485906312E0,6.223894412E0
4.826129375E0,3.705582873E0,2.522800489E0,-1.402296799E0,4.697052591E0
4.836155375E0,2.080633457E0,1.219777717E0,-7.317322612E-2,2.412933398E0
4.846182375E0,-1.082828325E-1,-7.465818501E-1,1.734937297E0,1.891855453E0
4.856209375E0,-2.277815017E0,-3.191190740E0,3.931930345E0,5.552676456E0
4.866235375E0,-4.785636694E0,-5.831930446E0,5.891251618E0,9.571863817E0
4.876262375E0,-7.682861883E0,-7.803216877E0,7.184061643E0,1.309684321E1
4.886289375E0,-1.020025253E1,-8.879730209E0,7.360955120E0,1.539735109E1
4.896315375E0,-1.223519818E1,-9.004146094E0,6.460316094E0,1.650788919E1
4.906342375E0,-1.491428130E1,-9.555146767E0,5.569594531E0,1.856763312E1
4.916369375E0,-1.780418694E1,-1.142917120E1,4.952374726E0,2.172880674E1
4.926395375E0,-1.911046310E1,-1.310639238E1,4.433648930E0,2.359331609E1
4.936422375E0,-1.957692941E1,-1.418079253E1,4.724924469E0,2.463079278E1
4.946449375E0,-2.031649694E1,-1.466830998E1,6.175735617E0,2.580812035E1
4.956475375E0,-2.022176737E1,-1.308391218E1,7.602952664E0,2.525694999E1
4.966502375E0,-1.860484150E1,-9.090172670E0,8.299931415E0,2.230829953E1
4.976529375E0,-1.623829791E1,-4.023803844E0,8.288147521E0,1.866994124E1
4.986555375E0,-1.356054328E1,9.673136562E-2,8.110532498E0,1.580121604E1
4.996582375E0,-1.041710354E1,2.421043442E0,8.056952122E0,1.338999533E1
5.006608375E0,-7.099879280E0,3.356514038E0,7.880206581E0,1.112529227E1
5.016635375E0,-3.819393078E0,3.533209002E0,7.003829407E0,8.724961645E0
5.026662375E0,-8.592997956E-1,3.051721198E0,5.781007630E0,6.593288074E0
5.036688375E0,1.641596439E0,2.554198575E0,4.542403340E0,5.463716440E0
5.046715375E0,3.740403042E0,2.748479624E0,3.252774493E0,5.667918230E0
5.056742375E0,5.356130229E0,3.691563588E0,2.118736838E0,6.841404720E0
5.066768375E0,6.404168791E0,5.030556092E0,9.391499573E-1,8.197674984E0
5.076795375E0,7.335326189E0,6.062214264E0,-7.217042863E-2,9.516441596E0
5.086822375E0,8.321412916E0,6.381227825E0,-8.280782953E-1,1.051911095E1
5.096848375E0,9.141369136E0,6.261964506E0,-1.439744415E0,1.117361594E1
5.106875375E0,9.798018470E0,5.940557095E0,-2.032227867E0,1.163706727E1
5.116901375E0,1.036298054E1,5.662455332E0,-2.640178666E0,1.210063261E1
5.126928375E0,1.056918962E1,5.422145294E0,-3.156261520E0,1.229102988E1
5.136955375E0,1.042639710E1,5.012606310E0,-3.627796193E0,1.212422714E1
5.146981375E0,1.014174763E1,4.531211185E0,-3.980532986E0,1.179964248E1
5.157008375E0,9.822001995E0,4.106281452E0,-4.211728969E0,1.144866505E1
5.167035375E0,9.625194656E0,3.999075676E0,-4.426582277E0,1.132393965E1
5.177061375E0,9.418523065E0,4.255451232E0,-4.479253411E0,1.126415345E1
5.187088375E0,9.087568905E0,4.431441313E0,-4.458879373E0,1.105003104E1
5.197115375E0,8.594715284E0,4.434787675E0,-4.234834242E0,1.055794931E1
5.207141375E0,8.172997134E0,4.463659764E0,-3.977548567E0,1.012635340E1
5.217168375E0,7.937508125E0,4.650375978E0,-3.816445789E0,9.959683249E0
5.227194375E0,7.735150024E0,4.763287759E0,-3.761721698E0,9.832192345E0
5.237221375E0,7.552905761E0,4.683320360E0,-3.896710811E0,9.703825543E0
5.247248375E0,7.248538306E0,4.306296573E0,-4.074369103E0,9.364079310E0
5.257274375E0,6.948255715E0,3.961347979E0,-4.160276980E0,9.015455609E0
5.267301375E0,6.586204893E0,3.902891610E0,-4.397487701E0,8.828847937E0
5.277328375E0,6.189983527E0,3.956845915E0,-4.416836430E0,8.572104159E0
5.287354375E0,5.998214149E0,3.993047197E0,-4.377339073E0,8.431138492E0
5.297381375E0,5.800280637E0,3.902990136E0,-4.188833027E0,8.150025128E0
5.307407375E0,5.392837880E0,3.844660651E0,-3.949376097E0,7.711140478E0
5.317434375E0,4.512300997E0,3.395607645E0,-3.336542873E0,6.559232418E0
5.327465083E0,2.787001666E0,2.075283254E0,-2.059458935E0,4.039251165E0
5.337491083E0,5.171926564E-1,-1.214104164E-1,-3.755713391E-1,6.506016937E-1
5.347518083E0,-1.818554819E0,-2.299724242E0,1.913389348E0,3.500990148E0
5.357544083E0,-4.289111606E0,-4.267485094E0,4.543335679E0,7.566360187E0
5.367571083E0,-6.801084221E0,-6.335619543E0,6.965781575E0,1.161537492E1
5.377598083E0,-8.962707462E0,-8.630610756E0,8.507326891E0,1.507289547E1
5.387624083E0,-1.093971715E1,-1.137548908E1,8.617390786E0,1.798161803E1
5.397651083E0,-1.350505438E1,-1.417075286E1,7.657560396E0,2.101987064E1
5.407678083E0,-1.654621346E1,-1.650277683E1,6.577490203E0,2.427719506E1
5.417704083E0,-1.855473086E1,-1.760350699E1,5.483314771E0,2.615775672E1
5.427731083E0,-1.930515667E1,-1.740269489E1,4.484210388E0,2.637519681E1
5.437757083E0,-1.939281930E1,-1.675035262E1,4.281071684E0,2.598044126E1
5.447784083E0,-1.951968985E1,-1.576282572E1,5.027156521E0,2.558822520E1
5.457811083E0,-1.893377077E1,-1.354943123E1,6.002303107E0,2.404376021E1
5.467837083E0,-1.707703890E1,-9.728037824E0,6.451935280E0,2.068544044E1
5.477864083E0,-1.460019694E1,-5.510122501E0,6.356322779E0,1.685022373E1
5.487891083E0,-1.201093641E1,-2.166421466E0,6.224528292E0,1.370039152E1
5.497917083E0,-8.988418254E0,3.992092931E-1,5.990887004E0,1.080933661E1
5.507944083E0,-5.835145245E0,2.431691806E0,5.572937384E0,8.427317258E0
5.517970083E0,-2.777048535E0,3.844728479E0,4.847106133E0,6.781472813E0
5.527997083E0,-1.505090851E-1,4.881902329E0,3.766364095E0,6.167748522E0
5.538024083E0,2.080789577E0,5.760183941E0,2.515378326E0,6.620916282E0
5.548050083E0,4.071050808E0,6.402443277E0,1.354413950E0,7.707085814E0
5.558077083E0,5.872863879E0,7.001641964E0,2.232405540E-1,9.141299507E0
5.568103083E0,7.345852346E0,7.599978186E0,-8.201383612E-1,1.060159620E1
5.578130083E0,8.353786025E0,7.854194072E0,-1.530711011E0,1.156793766E1
5.588157083E0,9.078578226E0,7.771913223E0,-2.128600506E0,1.213895209E1
5.598183083E0,9.698035761E0,7.567572917E0,-2.796642555E0,1.261512057E1
5.608210083E0,1.014903443E1,7.304670407E0,-3.365576053E0,1.294944832E1
5.618236083E0,1.036647484E1,6.769204617E0,-3.702315741E0,1.292257999E1
5.628263083E0,1.055899792E1,6.095908259E0,-4.045815102E0,1.284605599E1
5.638290083E0,1.055261978E1,5.462958859E0,-4.286114615E0,1.263220021E1
5.648316083E0,1.026681957E1,4.984011086E0,-4.556775211E0,1.228870013E1
5.658343083E0,9.760934844E0,4.468047807E0,-4.721569921E0,1.172742609E1
5.668369083E0,9.113093171E0,4.066087984E0,-4.911842412E0,1.112239788E1
5.678396083E0,8.421551161E0,4.124193227E0,-5.042369222E0,1.064692355E1
5.688423083E0,7.727110103E0,4.239307654E0,-5.125710171E0,1.019572777E1
5.698449083E0,7.045534673E0,4.189837579E0,-5.308363740E0,9.765911292E0
5.708476083E0,6.521482648E0,4.323267531E0,-5.505680956E0,9.567282836E0
5.718502083E0,6.076056962E0,4.440163020E0,-5.400813482E0,9.262953207E0
5.728529083E0,5.808067374E0,4.505229959E0,-5.175531957E0,8.989820613E0
5.738556083E0,5.672779761E0,4.684215569E0,-4.789141223E0,8.778278838E0
5.748582083E0,5.599672608E0,4.985152463E0,-4.399877751E0,8.692928311E0
5.758609083E0,5.542568700E0,5.327701651E0,-4.022002609E0,8.676461126E0
5.768635083E0,5.589858642E0,5.482711923E0,-3.738108594E0,8.676410867E0
5.778662083E0,5.523249500E0,4.918718737E0,-3.409950573E0,8.144190688E0
5.788689083E0,5.316981366E0,4.176919910E0,-3.362906507E0,7.551562153E0
5.798715083E0,5.104292405E0,3.754553304E0,-3.279796815E0,7.134951900E0
5.808742083E0,4.644975489E0,3.472854334E0,-3.014105183E0,6.536156713E0
5.818768083E0,3.660275137E0,3.516151797E0,-2.536585592E0,5.674081776E0
5.828795083E0,2.299224597E0,3.309248948E0,-1.546276591E0,4.316078503E0
5.838822083E0,2.940243155E-1,2.243937711E0,9.859721214E-2,2.265265583E0
5.848848083E0,-2.258851327E0,4.690303105E-1,2.513684388E0,3.411892136E0
5.858875083E0,-4.814488610E0,-1.708087759E0,5.042435296E0,7.177953614E0
5.868901083E0,-7.321651890E0,-4.492436251E0,7.507157730E0,1.140815441E1
5.878928083E0,-1.001527118E1,-8.104067817E0,9.569577695E0,1.604862578E1
5.888955083E0,-1.285701214E1,-1.168041436E1,1.039047766E1,2.024097001E1
5.898981083E0,-1.583826182E1,-1.341553818E1,9.710554649E0,2.291554219E1
5.909008083E0,-1.898615598E1,-1.300197164E1,8.422551620E0,2.450438248E1
5.919034083E0,-2.112186903E1,-1.178325051E1,6.740528702E0,2.510802802E1
5.929061083E0,-2.195686079E1,-1.110154001E1,5.590852668E0,2.523104357E1
5.939088083E0,-2.189666721E1,-1.184570813E1,5.716595287E0,2.554338070E1
5.949114083E0,-2.141313990E1,-1.311744479E1,6.812013837E0,2.601909780E1
5.959141083E0,-2.009304910E1,-1.296995930E1,7.631849604E0,2.510369684E1
5.969167083E0,-1.776820201E1,-1.029096506E1,7.476572700E0,2.185205033E1
5.979194083E0,-1.521120174E1,-5.968003925E0,6.762191466E0,1.768403129E1
5.989220083E0,-1.300608808E1,-1.712654435E0,5.554268394E0,1.424575058E1
5.999247083E0,-1.061733208E1,1.687667382E0,4.161436775E0,1.152794508E1
6.009274083E0,-7.544752988E0,3.922207302E0,2.626595584E0,8.899775960E0
6.019300083E0,-4.293520406E0,4.569369237E0,1.020661898E0,6.352574550E0
6.029327083E0,-1.427699443E0,4.355017912E0,-1.858531648E-1,4.586834215E0
6.039353083E0,1.186922797E0,4.078705398E0,-1.470810672E0,4.495320620E0
6.049380083E0,3.175350925E0,3.686790506E0,-2.741849467E0,5.585070835E0
6.059406083E0,4.363623844E0,3.461657209E0,-3.606225230E0,6.635446036E0
6.069433083E0,5.779896659E0,3.984184572E0,-3.930619984E0,8.045539481E0
6.079460083E0,6.926766613E0,4.911951755E0,-3.830708610E0,9.315669284E0
6.089486083E0,7.803213953E0,5.348205498E0,-3.420195479E0,1.005938304E1
6.099513083E0,9.150360399E0,5.024417101E0,-3.549897832E0,1.102613428E1
6.109539083E0,9.979144746E0,4.529901408E0,-3.740236981E0,1.157984064E1
6.119566083E0,1.026436842E1,3.983034717E0,-3.850170482E0,1.166386031E1
6.129593083E0,1.071590210E1,2.658635109E0,-4.309908105E0,1.185218151E1
6.139619083E0,1.075922062E1,1.419435866E0,-4.108421240E0,1.160408340E1
6.149646083E0,1.006253891E1,6.363972107E-1,-3.211758906E0,1.058182810E1
6.159672083E0,9.061306720E0,-3.102003452E-1,-3.381426393E0,9.676649636E0
6.169699083E0,8.251947994E0,-7.852942184E-1,-4.252106040E0,9.316208374E0
6.179725083E0,8.285180644E0,-5.465392470E-1,-4.485820419E0,9.437452425E0
6.189752083E0,8.913461042E0,-6.973199353E-1,-4.361023295E0,9.947591016E0
6.199779083E0,9.961820616E0,-1.466908825E0,-4.367427458E0,1.097561452E1
6.209805083E0,1.086195737E1,-2.353629431E0,-3.808298571E0,1.174839680E1
6.219832083E0,1.113326232E1,-2.846013813E0,-2.676579337E0,1.179887289E1
6.229858083E0,1.132317287E1,-2.892770488E0,-1.624583380E0,1.179922184E1
6.239885083E0,1.188965580E1,-2.895456991E0,-5.767143881E-1,1.225072185E1
6.249912083E0,1.212588215E1,-2.907084180E0,-6.535666823E-2,1.246966029E1
6.259938083E0,1.188918802E1,-3.033203066E0,-9.816685706E-2,1.227040136E1
6.269965083E0,1.097821405E1,-3.098210363E0,-5.214488447E-1,1.141893165E1
6.279991083E0,9.179578936E0,-2.551748592E0,-5.632353866E-1,9.544282289E0
6.290018083E0,7.856956882E0,-1.740558517E0,-1.001715750E-1,8.048064969E0
6.300044083E0,9.060027934E0,-1.394315058E0,6.498372113E0,1.123641672E1
6.310071083E0,6.140465212E0,2.027644454E-1,-1.537388823E0,6.333244890E0
6.320097083E0,3.335279875E0,3.140948832E-2,-2.095636243E0,3.939133110E0
6.330120958E0,3.688569814E0,-1.288500920E0,2.776211214E0,4.793029376E0
6.340147958E0,3.349081058E0,-2.555233240E0,1.598148118E0,4.505511986E0
6.350173958E0,4.878717935E-1,-3.582395195E0,3.368092695E-1,3.631117556E0
6.360200958E0,-2.852370028E0,-3.407568125E0,1.281895905E0,4.625018099E0
6.370226958E0,-6.085048226E0,-9.412111008E-1,1.704230936E0,6.388903922E0
6.380253958E0,-9.037137254E0,1.096147698E0,8.676709619E-1,9.144629158E0
6.390279958E0,-1.224557465E1,1.007202192E0,-8.202240229E-2,1.228719994E1
6.400306958E0,-1.463059193E1,-3.625343871E-1,-1.643742367E0,1.472710224E1
6.410333958E0,-1.559855171E1,-2.715508345E0,-1.997425531E0,1.595865000E1
6.420359958E0,-1.673950720E1,-5.565010314E0,-4.390326324E-1,1.764576977E1
6.430386958E0,-1.682455379E1,-8.493684168E0,5.723786777E-1,1.885565958E1
6.440412958E0,-1.539168423E1,-8.436912382E0,3.290313032E-1,1.755544633E1
6.450439958E0,-1.383345506E1,-7.478397616E0,-1.216512339E0,1.577247007E1
6.460465958E0,-1.619607634E1,-5.416355381E0,7.788590652E-1,1.709550864E1
6.470492958E0,-1.929929542E1,4.153397146E-1,6.052675116E-1,1.931325088E1
6.480519958E0,-1.656530812E1,2.640925355E0,8.144572064E-1,1.679426273E1
6.490545958E0,-1.142995005E1,3.490360898E0,3.314776028E0,1.240218196E1
6.500572958E0,-3.580612671E-1,8.291226080E0,-4.116530451E0,9.263825384E0
6.510598958E0,6.797962977E0,6.099120135E0,-6.040862571E0,1.095004966E1
6.520625958E0,7.763751680E-1,5.078552377E0,-8.353756204E-1,5.205026905E0
6.530651958E0,2.032275814E-1,2.885550638E0,-2.870880559E-1,2.906909611E0
6.540678958E0,1.763957613E0,2.062129139E-1,7.559862193E-1,1.930177554E0
6.550705958E0,1.107923990E0,-8.287869778E-1,7.406302616E-2,1.385593286E0
6.560731958E0,4.957795680E-1,-8.925429708E-1,4.113088195E0,4.237915152E0
6.570758958E0,1.738980061E0,-4.309661061E-2,3.448957933E0,3.862799477E0
6.580784958E0,4.175979093E0,-8.386161473E-1,2.777171912E0,5.084757836E0
6.590811958E0,4.630779619E0,-2.378612244E-1,1.531134349E0,4.883141431E0
6.600837958E0,5.526611064E0,3.124722809E-2,1.798153299E0,5.811863860E0
6.610864958E0,6.830503902E0,4.124137679E-1,3.207662639E0,7.557444560E0
6.620891958E0,7.170881435E0,5.751248226E-1,2.660697130E0,7.670177203E0
6.630917958E0,7.334389465E0,9.974917209E-1,2.531090087E0,7.822702575E0
6.640944958E0,6.793870511E0,2.329386290E0,3.121615598E0,7.831168556E0
6.650970958E0,5.640673869E0,3.687217061E0,4.418204094E0,8.058120052E0
6.660997958E0,5.006312367E0,4.107241272E0,5.832599952E0,8.715033940E0
6.671023958E0,4.693910252E0,3.111294093E0,8.857431267E0,1.049604845E1
6.681050958E0,5.050815525E0,2.110819123E0,7.114076904E0,8.976434985E0
6.691077958E0,5.618848552E0,1.197220146E-1,3.734473965E0,6.747746899E0
6.701103958E0,6.113791968E0,-6.984195042E-1,3.591120118E0,7.124772680E0
6.711130958E0,7.030543581E0,-3.898806453E-1,3.733296336E0,7.969821296E0
6.721156958E0,8.310762212E0,-2.932911112E-1,3.066277549E0,8.863230011E0
6.731183958E0,9.021324044E0,5.453315046E-1,2.511683178E0,9.380310568E0
6.741210958E0,8.653386830E0,2.124325022E0,2.800706370E0,9.340118661E0
6.751236958E0,6.890116265E0,3.655644727E0,3.071771885E0,8.382912563E0
6.761263958E0,5.756136498E0,4.242015500E0,2.965368640E0,7.740879411E0
6.771289958E0,6.290618201E0,3.655968663E0,2.682269847E0,7.754518409E0
6.781316958E0,6.841589053E0,2.527143801E0,1.754048044E0,7.501365283E0
6.791342958E0,5.529911233E0,2.178694772E0,6.540404530E-1,5.979498145E0
6.801369958E0,2.918866904E0,2.695392169E0,-5.090919238E-1,4.005508399E0
6.811396958E0,3.811946064E-1,3.309278476E0,-3.130052546E-1,3.345834074E0
6.821422958E0,-1.150051425E0,3.940432489E0,8.023271576E-1,4.182505869E0
6.831449958E0,-2.668072808E0,4.825903252E0,7.887584013E-1,5.570466275E0
6.841475958E0,-3.671788305E0,4.948448321E0,2.364245635E-1,6.166446847E0
6.851502958E0,-4.737967268E0,3.402567586E0,-9.353206158E-1,5.907675064E0
6.861529958E0,-6.512182066E0,1.187588795E0,-3.288003382E0,7.391200759E0
6.871555958E0,-8.609247953E0,-4.039180559E-1,-5.553795939E0,1.025314339E1
6.881582958E0,-1.040004721E1,-1.600933878E0,-6.349679757E0,1.228993101E1
6.891608958E0,-1.165447845E1,-1.825722336E0,-6.664923618E0,1.354921905E1
6.901635958E0,-1.254858555E1,-6.446519443E-1,-7.045162790E0,1.440544668E1
6.911662958E0,-1.353193052E1,7.152991732E-1,-6.517441052E0,1.503668296E1
6.921688958E0,-1.510212076E1,1.302628085E0,-7.340986878E0,1.684223797E1
6.931715958E0,-1.669855564E1,1.356343239E0,-8.291749406E0,1.869316816E1
6.941741958E0,-1.775732969E1,1.412193504E0,-7.730154163E0,1.941835039E1
6.951768958E0,-1.852191863E1,2.514593922E0,-6.452943340E0,1.977435536E1
6.961794958E0,-1.838568552E1,3.623276296E0,-5.361658772E0,1.949125311E1
6.971821958E0,-1.719712667E1,4.460114305E0,-4.660549548E0,1.836721284E1
6.981848958E0,-1.491727624E1,5.313173075E0,-4.091527172E0,1.635529068E1
6.991874958E0,-1.119620409E1,5.857271694E0,-3.448238726E0,1.309782303E1
7.001901958E0,-6.593453686E0,5.197494099E0,-3.042884009E0,8.930101876E0
7.011927958E0,-2.453109865E0,3.905109167E0,-2.315576921E0,5.160380033E0
7.021954958E0,7.383232427E-1,1.748891384E0,-1.388792655E0,2.352124002E0
7.031981958E0,2.955419603E0,-1.518241092E0,-1.888615572E-1,3.327946774E0
7.042007958E0,4.817554305E0,-4.633821048E0,1.374358218E0,6.824220652E0
7.052034958E0,5.776983576E0,-6.214847057E0,3.155739949E0,9.052986127E0
7.062060958E0,5.422550506E0,-5.409564425E0,5.378791698E0,9.359425270E0
7.072087958E0,4.942062576E0,-3.401185889E0,8.128997421E0,1.010310086E1
7.082114958E0,3.919682767E0,-2.366208692E0,1.095613028E1,1.187432724E1
7.092140958E0,5.809083036E0,-2.252317649E0,1.002358943E1,1.180214919E1
7.102167958E0,5.245857589E0,-1.461730823E0,1.030330386E1,1.165391562E1
7.112193958E0,5.309331454E0,-1.559311204E0,9.221169012E0,1.075408805E1
7.122220958E0,5.452083038E0,-7.263450752E-1,8.559471191E0,1.017434684E1
7.132247958E0,5.150999964E0,-5.658298693E-1,7.672041610E0,9.258141635E0
7.142273958E0,4.689589160E0,-1.132707340E0,6.745160866E0,8.292916707E0
7.152300958E0,4.004398397E0,-1.255805336E0,7.091610732E0,8.240339577E0
7.162326958E0,3.987030120E0,-6.674088690E-1,7.468464950E0,8.492338458E0
7.172353958E0,4.477174726E0,-1.084015968E0,6.712818162E0,8.141382672E0
7.182380958E0,4.623542813E0,-1.561117994E0,6.363431824E0,8.019195852E0
7.192406958E0,4.531351810E0,-1.657883420E0,6.006222496E0,7.704312775E0
7.202433958E0,4.450029027E0,-7.479986304E-1,5.032154721E0,6.759056253E0
7.212459958E0,4.347201355E0,1.181638961E-1,4.357635711E0,6.156387846E0
7.222486958E0,3.476485163E0,6.952337949E-1,4.539212222E0,5.759665504E0
7.232513958E0,2.588010100E0,1.155361573E0,4.945491384E0,5.700047515E0
7.242539958E0,2.013151910E0,7.700326931E-1,5.553860843E0,5.957440829E0
7.252566958E0,1.672928159E0,2.078117254E-1,6.550837424E0,6.764269754E0
7.262592958E0,1.519042307E0,2.896865585E-1,6.921880095E0,7.092519431E0
7.272619958E0,1.380658886E0,3.471195918E-1,7.069783661E0,7.211695500E0
7.282646958E0,1.191189803E0,2.070368231E-1,6.820247301E0,6.926584341E0
7.292672958E0,1.168832096E0,3.727399711E-1,5.828961815E0,5.956668481E0
7.302699958E0,1.596135507E0,1.307674817E0,4.015040914E0,4.514223690E0
7.312725958E0,1.855376198E0,2.040319828E0,2.301269953E0,3.591819767E0
7.322752375E0,1.403346375E0,2.622377110E0,1.479517468E0,3.321929363E0
7.332779375E0,9.132643336E-1,2.470011241E0,6.187394965E-1,2.705151722E0
7.342805375E0,2.602269705E-1,8.811351992E-1,-6.588005251E-1,1.130546526E0
7.352832375E0,-5.600448534E-1,-1.383523436E0,-1.691172642E0,2.255626795E0
7.362858375E0,-9.861105542E-1,-3.190830844E0,-2.427576243E0,4.128794245E0
7.372885375E0,-1.732531313E0,-4.360323091E0,-3.365952614E0,5.774402065E0
7.382912375E0,-3.258307128E0,-3.932265390E0,-5.145450956E0,7.249478739E0
7.392938375E0,-3.727271365E0,-1.996739507E0,-8.651900468E0,9.629896271E0
7.402965375E0,-3.481871033E0,-1.195223797E0,-1.202361785E1,1.257455256E1
7.412991375E0,-4.158783016E0,-2.133541695E0,-1.447592840E1,1.521183682E1
7.423018375E0,-6.400658707E0,-3.515608006E0,-1.572992812E1,1.734239228E1
7.433045375E0,-8.531426775E0,-4.800414947E0,-1.542842697E1,1.827198909E1
7.443071375E0,-1.025408550E1,-5.192588870E0,-1.440567060E1,1.842912353E1
7.453098375E0,-1.042834539E1,-3.693699576E0,-1.484874336E1,1.851699176E1
7.463124375E0,-9.363589059E0,-5.785419354E-1,-1.638333926E1,1.887922976E1
7.473151375E0,-8.797196175E0,3.377830355E0,-1.789752604E1,2.022676042E1
7.483178375E0,-7.265499909E0,6.755595222E0,-1.752991978E1,2.014258284E1
7.493204375E0,-5.028575056E0,7.968434633E0,-1.452977307E1,1.731752936E1
7.503231375E0,-2.881404670E0,7.068028911E0,-1.181058624E1,1.406234237E1
7.513257375E0,-4.268517128E-1,4.784543849E0,-8.903852313E0,1.011694856E1
7.523284375E0,1.497139514E0,2.298260684E0,-4.991496692E0,5.695477866E0
7.533310375E0,3.158706241E0,7.840765357E-2,-1.210090050E0,3.383473187E0
7.543337375E0,4.878305999E0,-2.286286317E0,1.281818429E0,5.537872608E0
7.553364375E0,5.276359005E0,-3.270818415E0,3.348229119E0,7.053286871E0
7.563390375E0,5.139020773E0,-2.633294154E0,5.090436258E0,7.697812281E0
7.573417375E0,4.934168251E0,-2.237282995E0,6.270069332E0,8.286448030E0
7.583444375E0,4.200540907E0,-1.646212962E0,7.325132153E0,8.603029820E0
7.593470375E0,3.877560010E0,-4.811091962E-1,7.963577351E0,8.870484875E0
7.603497375E0,3.714385856E0,-6.765553030E-1,8.288114777E0,9.107537313E0
7.613523375E0,3.844698073E0,-1.806613489E0,8.785896431E0,9.758971855E0
7.623550375E0,4.410098391E0,-2.800108784E0,9.061410216E0,1.045938488E1
7.633576375E0,3.988490754E0,-3.552782848E0,8.867279148E0,1.035176139E1
7.643603375E0,2.851687658E0,-3.176282972E0,9.521262152E0,1.043433414E1
7.653630375E0,1.965488040E0,-1.858184908E0,9.944293002E0,1.030557896E1
7.663656375E0,1.546642627E0,-8.449187149E-1,1.005867507E1,1.021190164E1
7.673683375E0,1.440609218E0,-7.128726518E-1,1.008582369E1,1.021309854E1
7.683709375E0,1.402508469E0,-8.802562165E-1,9.710540616E0,9.850709622E0
7.693736375E0,1.520433067E0,-5.183333020E-1,9.014078175E0,9.156090403E0
7.703763375E0,2.423957986E0,5.332461870E-1,6.929790793E0,7.360837198E0
7.713789375E0,3.012324121E0,9.668071412E-1,5.002494135E0,5.918932355E0
7.723816375E0,2.762342496E0,1.533354245E0,3.662033980E0,4.836548787E0
7.733843375E0,2.839342432E0,2.171887297E0,2.845897161E0,4.569254920E0
7.743869375E0,2.728722175E0,2.508772142E0,2.528053043E0,4.486748773E0
7.753896375E0,1.800569953E0,2.176809775E0,2.244923844E0,3.608356416E0
7.763922375E0,1.189908385E-1,1.453915581E0,1.942022871E0,2.428884964E0
7.773949375E0,-6.607868242E-1,1.277725378E0,1.629576902E0,2.173647223E0
7.783976375E0,3.735253984E-1,7.121348794E-1,8.039798731E-1,1.137119583E0
7.794002375E0,1.161001213E0,-5.249410942E-2,-1.837253630E-2,1.162332568E0
7.804029375E0,1.367650877E0,5.728487939E-2,-7.211277509E-1,1.547183154E0
7.814055375E0,1.204970667E0,-3.647148138E-1,-9.379430920E-1,1.569938995E0
7.824082375E0,-2.279493168E-2,-6.490209107E-1,-1.313491042E0,1.465266689E0
7.834109375E0,-4.930044794E-1,-8.121367389E-1,-1.648743491E0,1.902885860E0
7.844135375E0,-3.482284431E-1,-1.245869016E0,-8.197123915E-1,1.531463698E0
7.854162375E0,-8.117062376E-1,-1.865654141E0,-1.508277583E-1,2.040167004E0
7.864188375E0,-2.121020468E0,-2.831084702E0,-7.084018707E-2,3.538189755E0
7.874215375E0,-3.048409043E0,-2.679590946E0,1.445045793E-1,4.061266662E0
7.884242375E0,-3.031364702E0,-1.692227479E0,-7.658449173E-2,3.472559716E0
7.894268375E0,-3.182787122E0,-5.132139185E-1,-1.017045395E0,3.380518263E0
7.904295375E0,-3.341535226E0,2.140386446E-1,-3.116043202E0,4.573991194E0
7.914321375E0,-3.610156313E0,-5.341362794E-1,-5.158300213E0,6.318749184E0
7.924348375E0,-4.615003539E0,-2.102783733E0,-6.679060432E0,8.386286743E0
7.934375375E0,-6.147232779E0,-2.636437909E0,-8.443035586E0,1.077144956E1
7.944401375E0,-8.646011152E0,-1.912141698E0,-1.040967173E1,1.366642090E1
7.954428375E0,-1.079590722E1,1.120433231E-1,-1.315046402E1,1.701466633E1
7.964455375E0,-9.938535833E0,3.476176137E0,-1.487983184E1,1.822821139E1
7.974481375E0,-7.332513678E0,6.431200469E0,-1.509590634E1,1.797254808E1
7.984508375E0,-4.419973462E0,6.979462305E0,-1.386728120E1,1.614157822E1
7.994534375E0,-2.081494459E0,4.483936154E0,-1.176643860E1,1.276273403E1
8.004561375E0,-3.330160345E-1,7.596823905E-1,-9.596029329E0,9.631811663E0
8.014588375E0,1.080980459E0,-2.226051079E0,-6.454448998E0,6.912577958E0
8.024614375E0,1.891046991E0,-3.399244613E0,-2.847994557E0,4.820995298E0
8.034641375E0,2.234073897E0,-2.855999395E0,6.062480897E-1,3.676323635E0
8.044667375E0,2.411194684E0,-1.766685923E0,3.348730225E0,4.488767434E0
8.054694375E0,2.578194671E0,-6.064365893E-1,4.873002867E0,5.546260906E0
8.064721375E0,2.736475291E0,1.511450429E-1,5.216157827E0,5.892320792E0
8.074747375E0,2.905714469E0,8.800892054E-1,5.946166914E0,6.676423784E0
8.084774375E0,2.927491547E0,1.692666605E0,7.186219851E0,7.942108205E0
8.094801375E0,2.963727912E0,1.995266739E0,7.709380760E0,8.497018548E0
8.104827375E0,3.027936772E0,1.894836133E0,6.929847511E0,7.796254972E0
8.114854375E0,3.016561013E0,1.900563627E0,6.309141011E0,7.246864339E0
8.124880375E0,3.133129058E0,2.091317928E0,6.495680054E0,7.508925871E0
8.134907375E0,3.454764511E0,1.618375099E0,7.093804607E0,8.054601144E0
8.144934375E0,3.570227724E0,4.500612851E-1,7.571333846E0,8.382969484E0
8.154960375E0,3.774558090E0,-6.375735243E-1,7.507454184E0,8.427078800E0
8.164987375E0,4.205196752E0,-1.206849231E0,7.165792018E0,8.395757264E0
8.175013375E0,4.402153780E0,-1.220058676E0,7.087351035E0,8.431965712E0
8.185040375E0,4.357619631E0,-1.330459954E0,7.416232358E0,8.703991896E0
8.195067375E0,4.562435024E0,-1.765040224E0,7.000794702E0,8.540626839E0
8.205093375E0,4.725664726E0,-1.741022786E0,7.025940653E0,8.644472772E0
8.215120375E0,4.590628543E0,-8.099232754E-1,7.410532492E0,8.754760873E0
8.225147375E0,4.427132208E0,3.062520128E-1,6.049703561E0,7.502813010E0
8.235173375E0,4.608788826E0,1.135186925E0,4.545268183E0,6.571837388E0
8.245200375E0,4.543964254E0,1.392190764E0,3.102618287E0,5.675565743E0
8.255226375E0,4.410151309E0,1.138540303E0,2.310445989E0,5.107236949E0
8.265253375E0,3.829019349E0,9.803862762E-1,2.304961593E0,4.575521213E0
8.275280375E0,3.208842022E0,1.252417459E0,1.313637807E0,3.686578482E0
8.285306375E0,3.151627017E0,2.382877788E0,6.472799022E-1,4.003727099E0
8.295333375E0,4.133869784E0,2.939921266E0,-1.345503963E0,5.248085113E0
8.305359375E0,3.968316983E0,4.046790125E0,-2.257362041E0,6.100797766E0
8.315386375E0,4.479047297E0,2.839029606E0,-7.004371444E0,8.785395444E0
8.325413083E0,4.673366060E0,3.988819075E0,-5.468763975E0,8.225473078E0
8.335439083E0,1.896012885E0,5.845590127E0,-3.602740290E0,7.123589431E0
8.345466083E0,-1.212740593E0,6.670768495E0,-3.564702398E0,7.660091073E0
8.355492083E0,-4.712535973E0,1.407206122E0,-2.861135589E0,5.689843691E0
8.365519083E0,-6.103309080E0,-5.924656177E-1,1.000992376E0,6.213162075E0
8.375546083E0,-9.029542891E0,-7.193057585E-1,-1.959904826E-1,9.060268090E0
8.385572083E0,-1.100012356E1,-7.727063325E-1,2.021145054E0,1.121092417E1
8.395599083E0,-1.281752940E1,2.365797486E0,1.618937309E0,1.313419262E1
8.405625083E0,-1.432157243E1,4.053250129E0,-4.452903226E-2,1.488416126E1
8.415652083E0,-1.354603751E1,5.456456171E0,-2.024364531E-1,1.460510276E1
8.425679083E0,-1.736162873E1,4.484332303E0,-3.094226071E0,1.819641787E1
8.435705083E0,-2.653778938E1,-4.518593186E0,-4.456520898E0,2.728612336E1
8.445732083E0,-2.653458511E1,-2.493765263E0,6.268466025E0,2.737876437E1
8.455758083E0,-2.623870196E1,-6.045056194E-1,3.026294289E0,2.641956406E1
8.465785083E0,-1.865992227E1,3.921830741E0,3.185337385E0,1.933183462E1
8.475812083E0,-1.212130728E1,4.204460003E0,4.359991554E0,1.355039116E1
8.485838083E0,-7.697599790E0,1.613483318E0,2.401001818E0,8.223209877E0
8.495865083E0,-2.389298615E0,-9.207107627E-1,3.267470884E-1,2.581321336E0
8.505892083E0,2.732207408E0,-2.323183856E0,-3.311332018E0,4.881296988E0
8.515918083E0,6.512460394E0,-2.356786050E0,-5.554661912E0,8.878110712E0
8.525945083E0,8.038580756E0,-1.223064437E0,-7.279199497E-1,8.163610392E0
8.535971083E0,4.392320225E0,-1.456101416E0,6.519172997E0,7.994518426E0
8.545998083E0,4.857753328E0,-5.405519906E-1,5.029736313E0,7.013430774E0
8.556025083E0,5.381667359E0,2.973739514E0,1.513041894E0,6.332042801E0
8.566051083E0,5.432600116E0,2.792586049E0,8.238361403E-2,6.108884343E0
8.576078083E0,6.791141031E0,1.195817289E0,7.026128349E-1,6.931323127E0
8.586104083E0,7.983155583E0,-1.451952524E0,1.925391051E0,8.339428631E0
8.596131083E0,9.734457482E0,-3.502405577E0,-1.632086527E-1,1.034664894E1
8.606158083E0,1.183321965E1,-4.932039864E0,-2.378411100E0,1.303867109E1
8.616184083E0,1.443754026E1,-5.158445224E0,-4.083946842E-1,1.533684818E1
8.626211083E0,1.547952345E1,-5.300302184E0,-7.233447227E-1,1.637779219E1
8.636237083E0,1.524745681E1,-6.091999980E0,-1.019088412E0,1.645101651E1
8.646264083E0,1.436806014E1,-6.667277123E0,-1.249900526E0,1.588886364E1
8.656291083E0,1.292903347E1,-6.150269238E0,-1.025947196E0,1.435403378E1
8.666317083E0,1.105379399E1,-3.972905293E0,-8.434079406E-1,1.177631839E1
8.676344083E0,9.122465088E0,-2.250822662E0,-1.317263373E0,9.487926788E0
8.686370083E0,7.397414263E0,-1.195422894E0,-1.987984325E0,7.752603134E0
8.696397083E0,6.397760827E0,-3.438485131E-1,-2.180658559E0,6.767927833E0
8.706424083E0,6.519626157E0,-2.566343681E-1,-2.375624025E0,6.943700449E0
8.716450083E0,7.352578983E0,1.108952954E-1,-2.866094321E0,7.892224789E0
8.726477083E0,7.950454445E0,3.722754098E-1,-3.403033317E0,8.656151028E0
8.736503083E0,8.009577397E0,3.543792024E-1,-3.233690642E0,8.644979460E0
8.746530083E0,7.358461867E0,-7.874628045E-2,-2.204467252E0,7.681981378E0
8.756556083E0,6.083937255E0,-1.117863453E0,-1.815012284E0,6.446563488E0
8.766583083E0,4.689339484E0,-1.664185402E0,-1.997316773E0,5.361780688E0
8.776610083E0,3.122983847E0,-1.026635121E0,-1.936742250E0,3.815491885E0
8.786636083E0,1.461112188E0,7.134274795E-1,-2.163704265E0,2.706555697E0
8.796663083E0,-2.042017275E-1,2.613878767E0,-1.751653317E0,3.153149203E0
8.806689083E0,-1.198687980E0,3.828501286E0,-1.284733266E0,4.212459440E0
8.816716083E0,-1.914012954E0,3.311122103E0,2.619809890E-1,3.833485256E0
8.826743083E0,-3.580240788E0,1.010195674E0,2.941278697E0,4.742334844E0
8.836769083E0,-5.702807552E0,-1.365172243E0,5.445937030E0,8.002745739E0
8.846796083E0,-6.856868412E0,-2.566587948E0,5.237098460E0,9.001734189E0
8.856822083E0,-8.240177549E0,-1.966012242E0,5.634398637E0,1.017409348E1
8.866849083E0,-1.050565962E1,-1.283217668E0,6.664544719E0,1.250726540E1
8.876876083E0,-1.256517761E1,-2.020425847E0,7.708057535E0,1.487884269E1
8.886902083E0,-1.519171764E1,-2.825778938E0,8.344417616E0,1.756139564E1
8.896929083E0,-1.676200495E1,-3.251729887E0,1.017103048E1,1.987431554E1
8.906955083E0,-1.828240615E1,-3.774726490E0,1.160737445E1,2.198240379E1
8.916982083E0,-1.973136373E1,-4.056823947E0,1.229731315E1,2.360102638E1
8.927008083E0,-2.035129489E1,-3.761636621E0,1.240029548E1,2.412659201E1
8.937035083E0,-2.050599350E1,-2.655727874E0,1.110393503E1,2.347010936E1
8.947062083E0,-1.986873588E1,-8.264302576E-1,8.924084848E0,2.179653511E1
8.957088083E0,-1.766740419E1,7.506690538E-1,6.211698917E0,1.874262197E1
8.967115083E0,-1.417284149E1,1.315935471E0,3.533598719E0,1.466585974E1
8.977141083E0,-1.043543339E1,1.117019626E0,1.242573672E0,1.056834860E1
8.987168083E0,-6.293227814E0,5.429756615E-1,-1.044233193E0,6.402340341E0
8.997195083E0,-2.447807025E0,-3.517626464E-2,-2.801486973E0,3.720393240E0
9.007221083E0,6.113936394E-1,-1.504494435E-1,-3.740742180E0,3.793361211E0
9.017248083E0,3.278127435E0,-1.009374140E-1,-4.407739917E0,5.494040318E0
9.027274083E0,5.203986847E0,1.857242337E-1,-5.155802282E0,7.327910328E0
9.037301083E0,6.319668338E0,9.358858953E-1,-5.667971596E0,8.540491340E0
9.047328083E0,6.836971507E0,2.019972834E0,-5.970702415E0,9.299126678E0
9.057354083E0,6.954026917E0,3.278802788E0,-6.127843412E0,9.831556488E0
9.067381083E0,6.811677037E0,4.326936952E0,-6.549157519E0,1.039292027E1
9.077407083E0,6.291081886E0,4.753821993E0,-6.763457973E0,1.038849838E1
9.087434083E0,5.723228953E0,4.920010972E0,-7.019256701E0,1.030688228E1
9.097460083E0,5.263505656E0,4.964944485E0,-7.029992189E0,1.008840700E1
9.107487083E0,4.727095540E0,4.689653479E0,-6.680959023E0,9.432576290E0
9.117514083E0,4.161864499E0,4.816488943E0,-7.286597832E0,9.675442616E0
9.127540083E0,3.941929668E0,4.682185416E0,-7.564628259E0,9.730635666E0
9.137567083E0,3.773747959E0,4.628313556E0,-7.267603152E0,9.406408220E0
9.147593083E0,3.382901938E0,5.056570355E0,-7.129981915E0,9.372810218E0
9.157620083E0,3.037476504E0,5.442227556E0,-7.090933625E0,9.440627307E0
9.167647083E0,2.843753572E0,5.923655133E0,-6.784559990E0,9.444939320E0
9.177673083E0,2.642403531E0,6.458173090E0,-6.082409962E0,9.256673648E0
9.187700083E0,2.432528835E0,6.834329735E0,-5.578004581E0,9.150923154E0
9.197726083E0,2.442029976E0,6.968613381E0,-5.495995628E0,9.204947083E0
9.207753083E0,2.563982721E0,6.749381386E0,-5.557792511E0,9.111378276E0
9.217779083E0,2.534193204E0,6.360036346E0,-5.593422520E0,8.840733736E0
9.227806083E0,2.605244476E0,5.938682477E0,-5.681328390E0,8.621643731E0
9.237833083E0,2.753859063E0,5.571079724E0,-5.757142219E0,8.471443534E0
9.247859083E0,2.749161994E0,5.140441062E0,-5.612973270E0,8.092434424E0
9.257886083E0,2.667610001E0,4.804322349E0,-5.241233611E0,7.593957210E0
9.267912083E0,2.060859928E0,4.709893616E0,-4.574969700E0,6.881903027E0
9.277939083E0,1.196261385E0,4.489824007E0,-3.137967921E0,5.606817600E0
9.287966083E0,5.021998107E-1,4.309766018E0,-1.647754142E0,4.641269384E0
9.297992083E0,1.009246963E-1,3.784388137E0,-3.721062791E-1,3.803977188E0
9.308019083E0,-5.235415632E-1,1.776927906E0,2.340670831E0,2.985013985E0
9.318045083E0,-1.789059709E0,-1.389748675E0,5.892271373E0,6.312764684E0
9.328072833E0,-3.351756159E0,-4.769908853E0,9.569753696E0,1.120564526E1
9.338099833E0,-5.339510688E0,-7.978823966E0,1.193924604E1,1.532049615E1
9.348125833E0,-6.772827551E0,-9.589351809E0,1.219539501E1,1.692792133E1
9.358152833E0,-8.157082767E0,-1.043697705E1,1.205499635E1,1.791065120E1
9.368178833E0,-9.679820514E0,-1.190285882E1,1.229383640E1,1.965999457E1
9.378205833E0,-1.075887914E1,-1.380212801E1,1.251765378E1,2.151613056E1
9.388232833E0,-1.101721848E1,-1.510847084E1,1.275350473E1,2.263397616E1
9.398258833E0,-1.078021212E1,-1.603780273E1,1.327649256E1,2.344545467E1
9.408285833E0,-1.058158805E1,-1.603014171E1,1.402217979E1,2.378144182E1
9.418311833E0,-1.030016975E1,-1.446110922E1,1.475145037E1,2.308294749E1
9.428338833E0,-9.649576961E0,-1.108972279E1,1.401675240E1,2.031171177E1
9.438365833E0,-8.775118843E0,-6.631792710E0,1.219576924E1,1.642315964E1
9.448391833E0,-7.511285280E0,-2.231725802E0,1.006951346E1,1.275911862E1
9.458418833E0,-5.514153571E0,1.034554590E0,7.942185313E0,9.723913839E0
9.468444833E0,-2.775054635E0,2.560293421E0,5.917803825E0,7.019717425E0
9.478471833E0,1.460236859E-1,2.787973181E0,4.207989675E0,5.049880640E0
9.488498833E0,2.948001533E0,2.744618123E0,2.626293283E0,4.808436137E0
9.498524833E0,5.197043279E0,2.830521322E0,9.635439563E-1,5.995792421E0
9.508551833E0,6.629228121E0,3.105048682E0,-7.957990336E-1,7.363510637E0
9.518578833E0,7.539234971E0,4.113196076E0,-2.244259601E0,8.876663059E0
9.528604833E0,7.720877556E0,5.062989428E0,-3.065684642E0,9.728526841E0
9.538631833E0,7.390677102E0,5.755076398E0,-4.221247652E0,1.027433424E1
9.548657833E0,6.808220163E0,6.454350765E0,-5.265857990E0,1.075824177E1
9.558684833E0,6.137734562E0,6.797376502E0,-6.240142112E0,1.108221487E1
9.568711833E0,5.631945730E0,6.594782174E0,-7.412545688E0,1.140858441E1
9.578737833E0,5.197791138E0,5.847389315E0,-8.598698407E0,1.162525736E1
9.588764833E0,4.915010433E0,4.899025315E0,-9.334013842E0,1.163106147E1
9.598791833E0,4.983517581E0,4.126983226E0,-9.915621765E0,1.184005883E1
9.608817833E0,5.302355726E0,4.277382676E0,-1.023866990E1,1.229802180E1
9.618844833E0,5.369544327E0,3.010422606E0,-1.011848506E1,1.184391787E1
9.628870833E0,5.213851100E0,2.101623207E0,-1.033413038E1,1.176415378E1
9.638897833E0,5.106027274E0,3.457035862E0,-9.640293921E0,1.144368290E1
9.648924833E0,4.719189812E0,4.266418854E0,-9.305401077E0,1.127224785E1
9.658950833E0,4.108670624E0,4.604361607E0,-9.135042449E0,1.102407913E1
9.668977833E0,3.564548616E0,4.970161371E0,-8.405911614E0,1.039556929E1
9.679004833E0,3.156149254E0,5.387564861E0,-7.964842688E0,1.012056581E1
9.689030833E0,2.920566397E0,5.823204061E0,-7.627782281E0,1.003107552E1
9.699057833E0,2.819145272E0,5.771529878E0,-7.765137470E0,1.007747474E1
9.709083833E0,2.818476058E0,5.712396986E0,-7.879720677E0,1.013238790E1
9.719110833E0,2.819629422E0,5.794757942E0,-7.991692518E0,1.026628847E1
9.729137833E0,2.960023701E0,5.702205874E0,-8.197773541E0,1.041539165E1
9.739163833E0,3.240884764E0,5.482797877E0,-8.251900631E0,1.042392779E1
9.749190833E0,3.515881070E0,5.206911625E0,-7.883262920E0,1.008063404E1
9.759217833E0,3.677127982E0,4.759612199E0,-7.157244558E0,9.348867747E0
9.769243833E0,3.624619401E0,4.314420694E0,-6.013021638E0,8.240662653E0
9.779270833E0,3.310985571E0,3.896624857E0,-4.217037656E0,6.627949707E0
9.789296833E0,2.336670459E0,2.853251204E0,-1.533117725E0,3.993935556E0
9.799323833E0,6.676324520E-1,1.246163862E0,1.785734398E0,2.277609449E0
9.809350833E0,-1.078963315E0,-1.221897625E0,5.515657475E0,5.751493113E0
9.819376833E0,-2.592644018E0,-4.328537627E0,9.297881557E0,1.057868813E1
9.829403833E0,-3.772204878E0,-7.079234515E0,1.188018331E1,1.433470776E1
9.839430833E0,-4.909727474E0,-9.292682798E0,1.304590528E1,1.675276162E1
9.849456833E0,-6.506422559E0,-1.105581595E1,1.348076504E1,1.860902004E1
9.859483833E0,-9.040656109E0,-1.230459294E1,1.468201235E1,2.118249175E1
9.869509833E0,-1.197211324E1,-1.367991653E1,1.594432914E1,2.418043100E1
9.879536833E0,-1.459572616E1,-1.503368495E1,1.714625473E1,2.707472911E1
9.889563833E0,-1.633102540E1,-1.632525536E1,1.783909950E1,2.917961316E1
9.899589833E0,-1.653914183E1,-1.628309811E1,1.662806863E1,2.855127253E1
9.909616833E0,-1.553855226E1,-1.352767959E1,1.428105474E1,2.506777305E1
9.919643833E0,-1.372505470E1,-9.155157455E0,1.179804864E1,2.028270165E1
9.929669833E0,-1.169198600E1,-5.658903733E0,9.952396073E0,1.636386005E1
9.939696833E0,-9.695814403E0,-3.613642423E0,8.737161643E0,1.354271842E1
9.949722833E0,-7.320895845E0,-2.568532732E0,7.886630917E0,1.106308382E1
9.959749833E0,-4.554557070E0,-1.893931861E0,6.946091661E0,8.519340195E0
9.969776833E0,-1.497213482E0,-1.421539401E0,5.545489969E0,5.917337364E0
9.979802833E0,1.368488783E0,-8.226895013E-1,3.988641320E0,4.296375117E0
9.989829833E0,3.542585304E0,2.943099520E-1,2.358225342E0,4.265882763E0
9.999856833E0,4.824162244E0,1.832851846E0,9.085216570E-1,5.239971264E0
1.000988283E1,5.557345199E0,3.359224808E0,-4.675918955E-1,6.510539083E0
1.001990983E1,6.233985579E0,4.596793555E0,-2.201310048E0,8.052257641E0
1.002993683E1,6.902044585E0,5.420309268E0,-3.979844184E0,9.636240540E0
1.003996283E1,7.460710373E0,5.962237401E0,-5.582272464E0,1.106219869E1
1.004998983E1,7.951834388E0,6.136084478E0,-6.842525192E0,1.215332686E1
1.006001583E1,8.254396223E0,5.686163453E0,-7.607804684E0,1.258356881E1
1.007004283E1,8.547624732E0,5.075254548E0,-8.033415910E0,1.278107462E1
1.008006983E1,8.899497891E0,4.675067892E0,-8.231377489E0,1.299280177E1
1.009009583E1,8.986380499E0,4.648672391E0,-8.285775890E0,1.307743368E1
1.010012283E1,8.636571407E0,4.851429272E0,-8.266002946E0,1.290168735E1
1.011014983E1,8.095334415E0,5.120996146E0,-8.055110834E0,1.251574414E1
1.012017583E1,7.498735986E0,5.287090985E0,-7.710623294E0,1.198491068E1
1.013020283E1,6.736174280E0,5.224947946E0,-7.272424182E0,1.120554677E1
1.014022883E1,5.721236222E0,4.989402804E0,-6.695838432E0,1.012229898E1
1.015025583E1,4.805271644E0,5.039952568E0,-6.593568292E0,9.589937449E0
1.016028283E1,4.081251860E0,5.236017895E0,-6.787935587E0,9.494660061E0
1.017030883E1,3.415089106E0,5.202277122E0,-6.833414646E0,9.242406428E0
1.018033583E1,2.918597932E0,5.188434423E0,-6.913178269E0,9.123053186E0
1.019036283E1,2.660765542E0,5.227317823E0,-7.046912861E0,9.168615259E0
1.020038883E1,2.622365123E0,5.083857556E0,-7.066634935E0,9.091739976E0
1.021041583E1,2.708109278E0,5.041448286E0,-7.017886114E0,9.055428327E0
1.022044183E1,3.030031829E0,5.295196395E0,-6.980974395E0,9.271148864E0
1.023046883E1,3.461274508E0,5.704119667E0,-6.957542263E0,9.639750865E0
1.024049583E1,3.678580431E0,4.936015971E0,-6.413027907E0,8.889495744E0
1.025052183E1,3.461149378E0,4.126198530E0,-5.453536656E0,7.664602493E0
1.026054883E1,3.512742870E0,3.860344053E0,-5.129677507E0,7.318142524E0
1.027057583E1,3.440357264E0,3.796073797E0,-5.373601125E0,7.424407278E0
1.028060183E1,2.462350219E0,3.412765422E0,-4.746926372E0,6.343772254E0
1.029062883E1,1.460126347E0,2.451910601E0,-3.162050264E0,4.259389207E0
1.030065483E1,1.220243740E0,1.236277682E0,-1.281933035E0,2.158872298E0
1.031068183E1,9.224725288E-1,-7.856947526E-1,1.473465600E0,1.907713995E0
1.032070883E1,1.687038660E-2,-4.246669883E0,4.901432614E0,6.485254920E0
1.033073437E1,-1.309344782E0,-8.315907762E0,8.672542309E0,1.208642610E1
1.034076138E1,-2.964952319E0,-1.220754553E1,1.125348926E1,1.686582731E1
1.035078837E1,-4.787650475E0,-1.410933254E1,1.229039356E1,1.931446700E1
1.036081437E1,-6.910169291E0,-1.398181295E1,1.263729834E1,2.007343624E1
1.037084137E1,-9.015526530E0,-1.351662368E1,1.282765444E1,2.070090705E1
1.038086738E1,-1.118829398E1,-1.416693112E1,1.364242769E1,2.262732182E1
1.039089437E1,-1.292885805E1,-1.568522382E1,1.466227098E1,2.506319626E1
1.040092137E1,-1.404105226E1,-1.747028286E1,1.540732904E1,2.719830363E1
1.041094737E1,-1.446323059E1,-1.837645160E1,1.541427554E1,2.800855053E1
1.042097438E1,-1.397154758E1,-1.697935999E1,1.409168213E1,2.611662905E1
1.043100137E1,-1.267632616E1,-1.366610190E1,1.212488344E1,2.223655514E1
1.044102737E1,-1.079858056E1,-9.763514636E0,1.027237209E1,1.781732832E1
1.045105438E1,-8.666965819E0,-5.991461785E0,8.917247699E0,1.380330458E1
1.046108037E1,-6.235373708E0,-2.746172021E0,7.959166796E0,1.047710275E1
1.047110737E1,-3.662871594E0,-3.285071003E-1,6.792981734E0,7.724580640E0
1.048113438E1,-1.233317237E0,1.518148853E0,5.239570078E0,5.592757991E0
1.049116038E1,9.917436156E-1,2.819682046E0,3.294638218E0,4.448460771E0
1.050118737E1,3.039978527E0,3.436648082E0,1.595867704E0,4.857860972E0
1.051121438E1,4.810289140E0,3.797820945E0,-8.970213532E-3,6.128817668E0
1.052124038E1,6.157291160E0,4.135742063E0,-1.749821969E0,7.620923419E0
1.053126737E1,7.075143803E0,4.481815369E0,-3.356860194E0,9.022906361E0
1.054129337E1,7.606235876E0,5.070400774E0,-5.072822106E0,1.045453549E1
1.055132038E1,7.995439414E0,5.791550744E0,-7.002579272E0,1.210393440E1
1.056134737E1,8.209232914E0,6.387290218E0,-8.638814984E0,1.352102458E1
1.057137337E1,8.273442943E0,6.389405740E0,-9.606578291E0,1.419720784E1
1.058140037E1,8.176779113E0,5.854382000E0,-1.002379759E1,1.419894445E1
1.059142638E1,8.056335826E0,5.480329183E0,-1.034804207E1,1.421339262E1
1.060145337E1,7.882741349E0,5.167960398E0,-1.040346432E1,1.403842925E1
1.061148037E1,7.375599471E0,4.741147569E0,-1.000718799E1,1.330495244E1
1.062150637E1,6.772873160E0,4.562148803E0,-9.737687484E0,1.270856286E1
1.063153338E1,6.110493554E0,4.408168226E0,-9.259597498E0,1.193776463E1
1.064156037E1,5.241927091E0,4.344316631E0,-8.733404222E0,1.107353764E1
1.065158637E1,4.210858319E0,4.408784814E0,-8.060800760E0,1.010669185E1
1.066161338E1,3.253766473E0,4.732868496E0,-7.487736204E0,9.436802102E0
1.067163938E1,2.483471532E0,5.133647767E0,-7.018084334E0,9.042979485E0
1.068166637E1,1.908405181E0,5.325004916E0,-6.657384803E0,8.736043733E0
1.069169338E1,1.523606644E0,5.182734557E0,-6.465994325E0,8.425627414E0
1.070171938E1,1.309043065E0,4.945342280E0,-6.559136378E0,8.318189348E0
1.071174637E1,1.309329871E0,5.136957875E0,-6.677137867E0,8.525658392E0
1.072177237E1,1.499393908E0,5.428963147E0,-6.685484768E0,8.741712048E0
1.073179938E1,1.888276434E0,5.303279001E0,-6.451885579E0,8.562545391E0
1.074182637E1,2.449860567E0,4.786955533E0,-6.382951584E0,8.346186614E0
1.075185237E1,2.600990626E0,5.529034735E0,-6.155821754E0,8.673495190E0
1.076187938E1,2.622240577E0,5.415558406E0,-5.391211184E0,8.078958876E0
1.077190637E1,2.571124218E0,4.487114700E0,-4.276486298E0,6.710679037E0
1.078193237E1,2.385714272E0,3.075228759E0,-3.204049060E0,5.041289011E0
1.079195937E1,1.994425617E0,2.091662183E0,-2.081797637E0,3.561834588E0
1.080198538E1,1.280561278E0,1.270750527E0,-3.046662480E-1,1.829608048E0
1.081201237E1,1.371359181E-1,-3.042823783E-1,2.309773559E0,2.333762610E0
1.082203937E1,-1.632708671E0,-2.683426427E0,6.818470332E0,7.507200055E0
1.083206537E1,-3.404290468E0,-6.012746819E0,1.154965658E1,1.345871038E1
1.084209238E1,-5.463793257E0,-9.295077817E0,1.481205442E1,1.832071136E1
1.085211837E1,-7.772610211E0,-1.194582065E1,1.679285954E1,2.202535430E1
1.086214537E1,-1.038497543E1,-1.441500275E1,1.742294380E1,2.488370932E1
1.087217238E1,-1.290646789E1,-1.523325276E1,1.687977021E1,2.614489521E1
1.088219838E1,-1.504231778E1,-1.476136608E1,1.590240344E1,2.640181221E1
1.089222537E1,-1.542716397E1,-1.383689205E1,1.472950109E1,2.542469611E1
1.090225238E1,-1.492964895E1,-1.321514709E1,1.395347851E1,2.433586022E1
1.091227838E1,-1.348283496E1,-1.198394566E1,1.326615819E1,2.239180085E1
1.092230537E1,-1.112406232E1,-9.748248725E0,1.218223761E1,1.916194220E1
1.093233137E1,-8.559401609E0,-6.870124050E0,1.067771160E1,1.531259238E1
1.094235838E1,-6.176448392E0,-3.795713901E0,9.299008316E0,1.179099294E1
1.095238537E1,-4.170286828E0,-8.582534364E-1,7.815679632E0,8.900153892E0
1.096241137E1,-2.315499153E0,1.458919774E0,6.314892917E0,6.882430951E0
1.097243837E1,-3.640198722E-1,2.966281391E0,4.577137263E0,5.466399297E0
1.098246438E1,1.779467937E0,3.573522922E0,2.650007250E0,4.791566617E0
1.099249137E1,3.797198217E0,3.691467694E0,6.255123264E-1,5.332627280E0
1.100251837E1,5.598272785E0,3.791021803E0,-1.517990978E0,6.929415639E0
1.101254438E1,7.010094699E0,3.979647717E0,-3.416055651E0,8.754910613E0
1.102257137E1,7.993518019E0,4.357877201E0,-4.997534527E0,1.038570052E1
1.103259737E1,8.699834188E0,5.066808829E0,-6.529454741E0,1.199972691E1
1.104262437E1,8.911197585E0,5.793919451E0,-7.852813545E0,1.321535567E1
1.105265138E1,8.648718413E0,6.041904545E0,-8.574223716E0,1.359493483E1
1.106267737E1,8.363214076E0,5.903343076E0,-9.104638097E0,1.369989942E1
1.107270437E1,8.078620149E0,5.346134999E0,-9.487209722E0,1.355921868E1
1.108273037E1,7.634586686E0,4.555858660E0,-9.461766733E0,1.298336596E1
1.109275738E1,7.042166092E0,3.580682546E0,-9.167275225E0,1.210174887E1
1.110278437E1,6.364338727E0,2.542247159E0,-8.878659584E0,1.121598966E1
1.111281037E1,5.549373690E0,1.797284988E0,-8.354099436E0,1.018905094E1
1.112283738E1,4.675595604E0,1.255948301E0,-7.796272139E0,9.177170569E0
1.113286437E1,3.796910242E0,1.036098255E0,-7.469964761E0,8.443364288E0
1.114289037E1,2.932498225E0,1.646435302E0,-7.478384752E0,8.199788628E0
1.115291738E1,2.126180343E0,2.728528048E0,-7.674211512E0,8.417780616E0
1.116294338E1,1.426252550E0,3.798844208E0,-7.750785479E0,8.748719289E0
1.117297037E1,9.862402162E-1,5.008082319E0,-7.681369089E0,9.222634621E0
1.118299737E1,9.039482573E-1,6.325278157E0,-7.657614191E0,9.973230234E0
1.119302338E1,1.101187413E0,7.198407787E0,-7.365524134E0,1.035763651E1
1.120305037E1,1.657325157E0,7.542306513E0,-7.032528126E0,1.044459506E1
1.121307637E1,2.372362740E0,7.426379616E0,-7.018431074E0,1.048988055E1
1.122310337E1,2.927062654E0,6.702970866E0,-6.937532507E0,1.008101540E1
1.123313038E1,3.385533477E0,5.569589269E0,-7.096180916E0,9.635244944E0
1.124315637E1,3.791400995E0,4.059863330E0,-7.174906658E0,9.073946072E0
1.125318337E1,4.143657731E0,2.456262391E0,-6.944301243E0,8.451416691E0
1.126320937E1,4.227138137E0,1.414279498E0,-6.547813829E0,7.921032083E0
1.127323637E1,3.582503076E0,1.412310156E-1,-5.318634374E0,6.414214379E0
1.128326337E1,2.512331634E0,-1.636338038E0,-3.629500072E0,4.707725904E0
1.129328937E1,1.327551257E0,-3.752110337E0,-1.564972186E0,4.276664853E0
1.130331638E1,-4.370527652E-1,-7.032548007E0,1.501741565E0,7.204371889E0
1.131334237E1,-2.383385034E0,-1.039155939E1,4.709664990E0,1.165529816E1
1.132336937E1,-4.211728677E0,-1.258700410E1,6.613134829E0,1.482919023E1
1.133339621E1,-6.522007143E0,-1.295607450E1,7.852652746E0,1.649425957E1
1.134342221E1,-9.360750235E0,-1.274353991E1,9.956044736E0,1.868540289E1
1.135344921E1,-1.208451076E1,-1.276550205E1,1.292402708E1,2.181797238E1
1.136347521E1,-1.365885720E1,-1.314354091E1,1.528691850E1,2.435173351E1
1.137350221E1,-1.426895568E1,-1.322256837E1,1.735089909E1,2.606708863E1
1.138352921E1,-1.414874160E1,-1.251278890E1,1.818129025E1,2.621671394E1
1.139355521E1,-1.367689352E1,-1.165837270E1,1.773275735E1,2.524729201E1
1.140358221E1,-1.238925828E1,-1.088902179E1,1.663055603E1,2.342306364E1
1.141360821E1,-1.006124316E1,-1.001615411E1,1.567948185E1,2.115178735E1
1.142363521E1,-7.174940572E0,-8.642940195E0,1.490343471E1,1.866259772E1
1.143366221E1,-4.306527830E0,-6.863322569E0,1.384215571E1,1.603922235E1
1.144368821E1,-1.890502177E0,-4.715047937E0,1.243752938E1,1.343494744E1
1.145371521E1,3.217810482E-2,-2.104577220E0,1.074157840E1,1.094585708E1
1.146374121E1,1.444521298E0,7.300646353E-1,9.096968304E0,9.239830544E0
1.147376821E1,2.415857546E0,3.366652233E0,7.325499358E0,8.416273272E0
1.148379521E1,3.181980498E0,5.662860544E0,5.435824855E0,8.470016605E0
1.149382121E1,3.936478894E0,7.350200336E0,3.722466123E0,9.131159023E0
1.150384821E1,4.711768526E0,8.181158677E0,1.926972138E0,9.635628758E0
1.151387421E1,5.653987979E0,8.207160661E0,-6.396772063E-1,9.986703816E0
1.152390121E1,6.507897227E0,7.426881307E0,-3.342024053E0,1.042499003E1
1.153392821E1,7.065065542E0,6.432951710E0,-5.527144915E0,1.103844870E1
1.154395421E1,7.517516073E0,5.772021629E0,-7.602476116E0,1.215018208E1
1.155398121E1,7.780168322E0,5.240115039E0,-9.314682947E0,1.321942295E1
1.156400721E1,8.019954450E0,4.889444067E0,-1.005847392E1,1.376223929E1
1.157403421E1,8.371985484E0,4.923817509E0,-1.004587200E1,1.397331972E1
1.158406121E1,8.001893570E0,4.827078250E0,-9.854251728E0,1.358076810E1
1.159408721E1,7.493795089E0,4.572202213E0,-9.400279752E0,1.286185279E1
1.160411421E1,7.070005270E0,4.334179898E0,-8.827590002E0,1.211183038E1
1.161414021E1,6.277258483E0,4.714163838E0,-8.465303537E0,1.154507162E1
1.162416721E1,5.189926633E0,5.014705460E0,-8.219751470E0,1.093832362E1
1.163419421E1,4.055410091E0,5.165505736E0,-7.849796966E0,1.023465256E1
1.164422021E1,3.104844322E0,5.677661017E0,-7.656673374E0,1.002499576E1
1.165424721E1,2.188418399E0,5.958091140E0,-7.699908856E0,9.978808622E0
1.166427321E1,1.525080727E0,5.904089180E0,-7.982439299E0,1.004507230E1
1.167430021E1,1.023808284E0,5.672009683E0,-8.286867566E0,1.009415927E1
1.168432721E1,6.646062255E-1,5.436861566E0,-8.546188656E0,1.015078843E1
1.169435321E1,6.668351841E-1,5.384639499E0,-8.769737066E0,1.031248272E1
1.170438021E1,1.058931632E0,5.032752891E0,-8.720961347E0,1.012448046E1
1.171440621E1,1.527486856E0,4.360686203E0,-8.224909884E0,9.433872103E0
1.172443321E1,2.069432238E0,3.753144417E0,-7.405748885E0,8.556503921E0
1.173446021E1,2.424474295E0,3.330794476E0,-6.945423324E0,8.075343497E0
1.174448621E1,2.418036511E0,2.855762875E0,-6.472468362E0,7.476304493E0
1.175451321E1,2.134449768E0,2.310225841E0,-5.732079883E0,6.538329988E0
1.176453921E1,1.698894182E0,1.846997430E0,-4.968580869E0,5.566366571E0
1.177456621E1,1.505758018E0,1.378624639E0,-3.834072513E0,4.343734009E0
1.178459321E1,1.650621909E0,-1.758959413E-2,-2.236593316E0,2.779786276E0
1.179461921E1,1.334862031E0,-1.902095159E0,7.428314459E-1,2.439594473E0
1.180464621E1,6.288768142E-2,-3.490928662E0,4.853581340E0,5.978945526E0
1.181467221E1,-1.895366768E0,-5.298450955E0,9.045276579E0,1.065284122E1
1.182469921E1,-4.061345892E0,-7.018331087E0,1.274529524E1,1.510609322E1
1.183472621E1,-6.183593690E0,-8.645994195E0,1.506112242E1,1.843440954E1
1.184475221E1,-8.643802659E0,-9.750690522E0,1.588498107E1,2.054565438E1
1.185477921E1,-1.042310746E1,-1.033573018E1,1.583150478E1,2.158946574E1
1.186480521E1,-1.098883727E1,-1.149056228E1,1.537524654E1,2.211754445E1
1.187483221E1,-1.084679320E1,-1.329112347E1,1.551608024E1,2.313126956E1
1.188485821E1,-1.087129069E1,-1.388907143E1,1.696914140E1,2.447535549E1
1.189488521E1,-1.075823010E1,-1.297069020E1,1.867781241E1,2.515629137E1
1.190491221E1,-1.037186831E1,-1.034281115E1,1.928145674E1,2.421412746E1
1.191493821E1,-9.667913829E0,-5.723180421E0,1.845445462E1,2.160532914E1
1.192496521E1,-8.187884730E0,-1.193628676E0,1.651053959E1,1.846792147E1
1.193499121E1,-5.774273391E0,1.393169003E0,1.425514923E1,1.544320021E1
1.194501821E1,-3.149999737E0,2.422142718E0,1.213833321E1,1.277217314E1
1.195504521E1,-3.354345891E-1,2.902051773E0,9.840737643E0,1.026521009E1
1.196507121E1,2.311592335E0,3.020097702E0,7.104526647E0,8.058458173E0
1.197509821E1,4.420277224E0,2.888939100E0,4.107809329E0,6.690210561E0
1.198512421E1,5.858611291E0,2.392218715E0,6.391743457E-1,6.360391535E0
1.199515121E1,6.410625286E0,2.581882510E0,-2.287004501E0,7.279603248E0
1.200517821E1,6.519205742E0,3.262829365E0,-5.187039278E0,8.947149011E0
1.201520421E1,6.228031359E0,3.575815031E0,-7.661483293E0,1.050110251E1
1.202523121E1,5.711559080E0,3.616888797E0,-9.638221083E0,1.177281179E1
1.203525721E1,5.348539374E0,3.515784591E0,-1.126239107E1,1.295411391E1
1.204528421E1,5.339172719E0,3.226513478E0,-1.261586361E1,1.407398910E1
1.205531121E1,5.562196049E0,2.747819474E0,-1.331116538E1,1.468590006E1
1.206533721E1,5.733000235E0,2.182082648E0,-1.330736001E1,1.465314324E1
1.207536421E1,5.827339797E0,1.573892698E0,-1.270130079E1,1.406264801E1
1.208539021E1,5.639513782E0,1.289529883E0,-1.190754127E1,1.323844938E1
1.209541721E1,5.003314499E0,1.252686870E0,-1.081887625E1,1.198542714E1
1.210544421E1,4.217284701E0,1.821301695E0,-9.385872213E0,1.044974771E1
1.211547021E1,3.455199544E0,2.608801629E0,-8.297778470E0,9.359347059E0
1.212549721E1,2.735918051E0,3.423646214E0,-7.589728602E0,8.764164605E0
1.213552321E1,2.142518633E0,4.007336038E0,-7.303250118E0,8.601545820E0
1.214555021E1,1.591607130E0,4.144366414E0,-7.131988680E0,8.400848097E0
1.215557621E1,1.348314427E0,4.347627032E0,-6.985099021E0,8.337350955E0
1.216560321E1,1.479706333E0,4.620856602E0,-7.355219001E0,8.811418338E0
1.217563021E1,1.738859609E0,4.548933218E0,-7.509722904E0,8.950551059E0
1.218565621E1,2.030691803E0,4.206106287E0,-7.460502212E0,8.801939136E0
1.219568321E1,2.430621766E0,3.703279947E0,-7.726459308E0,8.906198850E0
1.220570921E1,2.722798653E0,3.177088718E0,-7.912227103E0,8.950467192E0
1.221573621E1,2.830038635E0,3.047450100E0,-7.986324189E0,9.004301463E0
1.222576321E1,2.853174313E0,3.340260533E0,-8.079529976E0,9.196561788E0
1.223578921E1,2.889759464E0,3.721827607E0,-7.846320212E0,9.152456029E0
1.224581621E1,3.559650988E0,4.051245704E0,-7.544675220E0,9.273932881E0
1.225584221E1,4.258834431E0,3.905957013E0,-7.076977490E0,9.136617607E0
1.226586921E1,4.561166763E0,3.238930040E0,-6.183301329E0,8.338352677E0
1.227589521E1,4.825449216E0,1.936598847E0,-5.097852867E0,7.281722261E0
1.228592221E1,4.681082631E0,5.079800758E-1,-3.713984152E0,5.997020647E0
1.229594921E1,3.833755886E0,-7.825078739E-1,-1.266477674E0,4.112659537E0
1.230597521E1,2.326458004E0,-2.137180125E0,2.125711396E0,3.807702020E0
1.231600221E1,2.994566712E-1,-3.530934435E0,5.682125366E0,6.696545449E0
1.232602821E1,-1.964553362E0,-4.755774671E0,9.229455686E0,1.056691605E1
1.233605625E1,-4.533928386E0,-6.464006857E0,1.270471089E1,1.495826093E1
1.234608325E1,-7.042559025E0,-9.268684655E0,1.548618459E1,1.937338551E1
1.235610925E1,-9.335368642E0,-1.221502295E1,1.672650300E1,2.271853419E1
1.236613625E1,-1.149888170E1,-1.384804035E1,1.696536994E1,2.473492024E1
1.237616225E1,-1.319723940E1,-1.433260964E1,1.753061092E1,2.620902795E1
1.238618925E1,-1.405478620E1,-1.351716045E1,1.772613597E1,2.635273303E1
1.239621625E1,-1.419217238E1,-1.238540380E1,1.833234020E1,2.628479944E1
1.240624225E1,-1.348413304E1,-1.160346266E1,1.933194745E1,2.627139855E1
1.241626925E1,-1.169303967E1,-9.746404513E0,1.928079133E1,2.456559569E1
1.242629525E1,-9.357826627E0,-6.518864264E0,1.877765128E1,2.196963127E1
1.243632225E1,-6.667867107E0,-3.283667964E0,1.726595074E1,1.879776535E1
1.244634825E1,-3.977290705E0,-7.550918877E-1,1.495187071E1,1.549023701E1
1.245637525E1,-1.419345818E0,1.094614265E0,1.201203335E1,1.214502648E1
1.246640225E1,9.946724859E-1,2.168003722E0,8.571335776E0,8.897045042E0
1.247642825E1,3.126244839E0,2.732664660E0,4.863887057E0,6.395174763E0
1.248645525E1,4.810808957E0,2.931247798E0,1.347660416E0,5.792433433E0
1.249648125E1,6.191022577E0,2.878964042E0,-1.600868828E0,7.012843611E0
1.250650825E1,7.291964407E0,2.928591993E0,-3.971156391E0,8.804514697E0
1.251653425E1,7.940062189E0,3.201904301E0,-5.946511899E0,1.042390438E1
1.252656125E1,8.442880050E0,3.826835122E0,-7.575238032E0,1.197126233E1
1.253658825E1,8.581888247E0,4.435483201E0,-9.034519456E0,1.322667225E1
1.254661425E1,8.403931746E0,4.817891105E0,-1.001321530E1,1.393207178E1
1.255664125E1,8.087333086E0,5.007437371E0,-1.065456013E1,1.428282315E1
1.256666725E1,7.652774450E0,4.852027735E0,-1.114989181E1,1.436757520E1
1.257669425E1,7.059036478E0,4.303187608E0,-1.124798703E1,1.395939225E1
1.258672125E1,6.311320853E0,3.906047060E0,-1.125238297E1,1.347984039E1
1.259674725E1,5.483417097E0,3.571790685E0,-1.113778339E1,1.291804051E1
1.260677425E1,4.562747850E0,3.118877347E0,-1.081708349E1,1.214723669E1
1.261680025E1,3.692864302E0,2.888561954E0,-1.046528109E1,1.146748207E1
1.262682725E1,2.831149898E0,2.898321542E0,-9.818608271E0,1.062171106E1
1.263685425E1,1.971590486E0,2.967122805E0,-9.196479728E0,9.862364127E0
1.264688025E1,1.288945016E0,3.102389953E0,-8.682742776E0,9.310006702E0
1.265690725E1,6.759048003E-1,3.353843615E0,-8.292334127E0,8.970391272E0
1.266693325E1,4.021597981E-2,3.807775830E0,-8.038059184E0,8.894445994E0
1.267696025E1,-3.327016005E-1,4.112257891E0,-8.011515749E0,9.011422746E0
1.268698625E1,-5.258804494E-1,4.333282058E0,-8.123257209E0,9.221778100E0
1.269701325E1,-6.835251841E-1,4.826798753E0,-8.255494915E0,9.587407844E0
1.270704025E1,-7.209669524E-1,5.384100970E0,-8.126108311E0,9.774557427E0
1.271706625E1,-3.357880533E-1,5.506183816E0,-7.753692130E0,9.515805561E0
1.272709325E1,1.382676467E-1,5.223303124E0,-7.006503339E0,8.740314783E0
1.273711925E1,4.652360523E-1,4.985032595E0,-6.348247190E0,8.085000738E0
1.274714625E1,6.243697804E-1,4.633126984E0,-5.773817309E0,7.429176912E0
1.275717325E1,5.686101472E-1,4.271059497E0,-5.044672440E0,6.634303788E0
1.276719925E1,1.106296125E-1,4.125498618E0,-4.570169136E0,6.157793736E0
1.277722625E1,-5.151382372E-1,3.914009798E0,-4.044833647E0,5.652036742E0
1.278725225E1,-9.658939523E-1,2.842095886E0,-3.111456646E0,4.323380924E0
1.279727925E1,-1.119677478E0,1.049988900E0,-1.461144347E0,2.119220882E0
1.280730625E1,-8.567884165E-1,-2.268001635E0,1.338506016E0,2.769389131E0
1.281733225E1,-3.088850141E-1,-6.725782024E0,4.341208543E0,8.011095143E0
1.282735925E1,-5.190459314E-1,-1.028904951E1,7.443001496E0,1.270953264E1
1.283738525E1,-2.125592113E0,-1.165015034E1,1.038590630E1,1.575154578E1
1.284741225E1,-4.703056467E0,-1.163018444E1,1.259387457E1,1.777598400E1
1.285743925E1,-7.592733486E0,-1.154377312E1,1.500902256E1,2.040046710E1
1.286746525E1,-9.597175968E0,-1.180336961E1,1.742183985E1,2.312889588E1
1.287749225E1,-1.033462388E1,-1.234681451E1,1.922107605E1,2.507385180E1
1.288751825E1,-1.017156141E1,-1.314458289E1,2.065724460E1,2.651343952E1
1.289754525E1,-9.631090404E0,-1.296071602E1,2.094281326E1,2.644502769E1
1.290757225E1,-8.764452937E0,-1.166835155E1,2.025326281E1,2.496318725E1
1.291759825E1,-7.613204588E0,-9.464439495E0,1.877826173E1,2.236424854E1
1.292762525E1,-6.114832188E0,-6.903093576E0,1.713002169E1,1.945460142E1
1.293765125E1,-4.315919920E0,-4.709973723E0,1.564463127E1,1.689868353E1
1.294767825E1,-2.330435573E0,-2.883098024E0,1.383673651E1,1.432474996E1
1.295770525E1,-4.206182885E-1,-1.470745475E0,1.113948376E1,1.124402555E1
1.296773125E1,1.144116793E0,-1.712164146E-1,7.896353082E0,7.980645982E0
1.297775825E1,2.316432661E0,1.091199491E0,4.589202408E0,5.255221721E0
1.298778425E1,3.225907121E0,2.095527192E0,1.586261314E0,4.161001793E0
1.299781125E1,4.171238463E0,3.212179905E0,-1.155803915E0,5.390103222E0
1.300783825E1,5.599142266E0,3.929531232E0,-2.803776158E0,7.392751217E0
1.301786425E1,6.518960159E0,4.069219460E0,-4.047404668E0,8.685440295E0
1.302789125E1,7.453307213E0,4.613738786E0,-4.913118859E0,1.004873678E1
1.303791825E1,7.918450879E0,5.928567964E0,-5.654243503E0,1.139386905E1
1.304794425E1,7.925712537E0,6.414456382E0,-6.667443184E0,1.218265031E1
1.305797125E1,7.783776054E0,6.182593231E0,-7.558070607E0,1.248743609E1
1.306799725E1,7.436871275E0,6.043096792E0,-8.444792674E0,1.277265033E1
1.307802425E1,7.121741434E0,6.094294428E0,-9.273106905E0,1.318522420E1
1.308805125E1,6.764467202E0,5.980975388E0,-9.641797825E0,1.320963090E1
1.309807725E1,6.325627820E0,5.704400918E0,-9.625378844E0,1.285308037E1
1.310810425E1,5.906694115E0,5.792302111E0,-9.426388155E0,1.254179384E1
1.311813025E1,5.574823111E0,6.049998261E0,-9.124016939E0,1.228530898E1
1.312815725E1,5.121560403E0,6.167686340E0,-8.659218258E0,1.180054222E1
1.313818425E1,4.555692892E0,6.346211189E0,-8.229446154E0,1.134691668E1
1.314821025E1,3.935246008E0,6.547689868E0,-7.768036519E0,1.089498945E1
1.315823725E1,3.515300150E0,6.368025981E0,-7.444993642E0,1.040850712E1
1.316826425E1,3.304740452E0,6.117773337E0,-7.270577046E0,1.006030569E1
1.317829025E1,2.999061466E0,5.907549562E0,-7.061702224E0,9.683034122E0
1.318831725E1,2.574478181E0,5.539649186E0,-6.712443940E0,9.075932715E0
1.319834325E1,2.271589779E0,5.433658462E0,-6.724896170E0,8.939183011E0
1.320837025E1,2.056792020E0,5.649807220E0,-6.737700403E0,9.030355572E0
1.321839725E1,1.769117780E0,5.817323517E0,-6.685837939E0,9.037226321E0
1.322842325E1,1.549018351E0,5.747843977E0,-6.466719380E0,8.789518062E0
1.323845025E1,1.507233270E0,5.535706408E0,-6.067465648E0,8.350445315E0
1.324847725E1,1.476689755E0,5.416295155E0,-5.468459920E0,7.837149975E0
1.325850325E1,1.463932300E0,5.200124761E0,-4.647589195E0,7.126323080E0
1.326853025E1,1.353731580E0,4.558258065E0,-3.650429011E0,5.994659102E0
1.327855625E1,1.015596162E0,3.273211388E0,-2.211407604E0,4.078685076E0
1.328858325E1,4.379792565E-1,1.791271126E0,-5.294092441E-1,1.918528661E0
1.329861025E1,-3.828487837E-1,-5.383180618E-2,1.891398262E0,1.930507302E0
1.330863625E1,-1.384928815E0,-2.425788457E0,5.391332806E0,6.071980475E0
1.331866325E1,-2.668587363E0,-5.655709984E0,9.639362460E0,1.149024467E1
1.332868962E1,-4.265191524E0,-9.693350387E0,1.339691012E1,1.707718072E1
1.333871562E1,-5.935561818E0,-1.258277071E1,1.499721119E1,2.045662133E1
1.334874263E1,-8.323862899E0,-1.346911505E1,1.513625447E1,2.190456466E1
1.335876863E1,-1.120526845E1,-1.336659114E1,1.506838700E1,2.304951380E1
1.336879562E1,-1.346322340E1,-1.345452040E1,1.444499897E1,2.389436123E1
1.337882263E1,-1.452284178E1,-1.361541823E1,1.345586526E1,2.402816799E1
1.338884863E1,-1.431898446E1,-1.355608770E1,1.275672889E1,2.348478149E1
1.339887562E1,-1.307748960E1,-1.385631533E1,1.279865459E1,2.295264185E1
1.340890263E1,-1.115916549E1,-1.324943750E1,1.316244145E1,2.175602062E1
1.341892863E1,-9.005696191E0,-1.098448577E1,1.265040195E1,1.902088749E1
1.342895562E1,-7.026829430E0,-7.804022623E0,1.192688035E1,1.589117918E1
1.343898162E1,-5.197580053E0,-4.570935414E0,1.094805645E1,1.295253755E1
1.344900863E1,-3.132330621E0,-1.822641731E0,9.409133606E0,1.008292186E1
1.345903562E1,-1.181767307E0,2.176713735E-1,7.525917937E0,7.621246328E0
1.346906162E1,8.531216276E-1,1.479003498E0,5.379505643E0,5.643965700E0
1.347908862E1,3.145743841E0,1.766169907E0,2.893748435E0,4.624807072E0
1.348911563E1,5.229837388E0,1.661391018E0,2.269210839E-1,5.492077239E0
1.349914162E1,6.742342508E0,1.501517325E0,-1.814588653E0,7.141881317E0
1.350916862E1,7.702348314E0,1.587528113E0,-3.610121815E0,8.653288079E0
1.351919462E1,7.214159601E0,3.237429644E0,-5.478328850E0,9.619622469E0
1.352922163E1,6.090871468E0,5.935223265E0,-7.742692348E0,1.150108148E1
1.353924862E1,4.642886864E0,8.278352265E0,-9.765712604E0,1.361824722E1
1.354927462E1,3.655094212E0,9.617778048E0,-1.136874139E1,1.533328566E1
1.355930163E1,3.446828670E0,9.100455583E0,-1.283598322E1,1.610780509E1
1.356932862E1,3.786947463E0,6.931848428E0,-1.313771124E1,1.532941455E1
1.357935462E1,4.260025509E0,4.756491832E0,-1.252592291E1,1.405954397E1
1.358938163E1,4.006567129E0,4.119742327E0,-1.161592191E1,1.295972603E1
1.359940763E1,3.220765080E0,4.604594326E0,-1.075543513E1,1.213486718E1
1.360943462E1,2.219596922E0,5.101814940E0,-9.540805301E0,1.104455033E1
1.361946162E1,1.807187832E0,5.267889313E0,-8.644377440E0,1.028308548E1
1.362948763E1,1.800024700E0,4.781718475E0,-7.797221727E0,9.322102078E0
1.363951462E1,2.003141477E0,4.299669338E0,-7.188495002E0,8.612444055E0
1.364954062E1,2.289002787E0,4.042318467E0,-7.110790184E0,8.493715877E0
1.365956762E1,2.516924037E0,3.886890120E0,-7.516593967E0,8.828477008E0
1.366959462E1,2.762006865E0,3.884413239E0,-8.081500488E0,9.382323714E0
1.367962062E1,2.978003304E0,3.688486784E0,-8.511364979E0,9.742523915E0
1.368964762E1,3.094415228E0,3.556586462E0,-8.688885276E0,9.885415531E0
1.369967463E1,3.151373540E0,3.666930438E0,-8.638292243E0,9.899375076E0
1.370970062E1,3.251056581E0,3.756945984E0,-8.355340800E0,9.720891518E0
1.371972762E1,3.347123118E0,3.722077283E0,-8.128625538E0,9.546289625E0
1.372975362E1,3.450506276E0,3.738859962E0,-7.822938951E0,9.331850899E0
1.373978063E1,3.646483018E0,3.524309247E0,-7.166577299E0,8.779374935E0
1.374980762E1,3.600143249E0,3.388051581E0,-6.483026095E0,8.152886132E0
1.375983362E1,3.359050561E0,3.376401004E0,-5.499975827E0,7.275509502E0
1.376986063E1,3.073640948E0,2.872864227E0,-3.910328391E0,5.743804111E0
1.377988762E1,2.647765720E0,1.816894502E0,-1.459123549E0,3.527153310E0
1.378991362E1,1.811728195E0,-1.977735910E-1,2.298227647E0,2.933142302E0
1.379994063E1,4.599253187E-1,-3.324126019E0,6.762580306E0,7.549426301E0
1.380996663E1,-1.477765935E0,-6.462730410E0,1.105069262E1,1.288675615E1
1.381999362E1,-4.410807951E0,-8.991938277E0,1.419097253E1,1.736933741E1
1.383002062E1,-7.830551441E0,-1.036369624E1,1.585057372E1,2.049303352E1
1.384004663E1,-1.072656275E1,-1.094362309E1,1.672971195E1,2.268711741E1
1.385007362E1,-1.220833724E1,-1.160991331E1,1.768409916E1,2.442459720E1
1.386009962E1,-1.187478049E1,-1.269938758E1,1.884629526E1,2.564113300E1
1.387012662E1,-1.016033476E1,-1.427852055E1,1.969422923E1,2.636230674E1
1.388015363E1,-8.312151511E0,-1.589554816E1,1.990162997E1,2.679244650E1
1.389017962E1,-7.226636390E0,-1.544589026E1,1.917026141E1,2.565733271E1
1.390020662E1,-6.724313788E0,-1.246794309E1,1.763180868E1,2.261739769E1
1.391023363E1,-6.158816113E0,-8.508006338E0,1.538681935E1,1.862985232E1
1.392025963E1,-4.843810350E0,-4.897827805E0,1.307412277E1,1.477781791E1
1.393028662E1,-2.429094180E0,-2.670168158E0,1.081433647E1,1.140088461E1
1.394031262E1,-1.951391280E-2,-9.966403663E-1,8.250714816E0,8.310714036E0
1.395033963E1,1.822143548E0,3.865199581E-1,5.456612876E0,5.765780855E0
1.396036662E1,2.835375389E0,1.617177589E0,2.549619913E0,4.141881052E0
1.397039262E1,3.521513401E0,3.056009254E0,-1.415739548E-1,4.664792855E0
1.398041963E1,4.320734225E0,4.684163821E0,-1.945527692E0,6.662973281E0
1.399044563E1,4.786636860E0,5.998399506E0,-3.573627003E0,8.465429642E0
1.400047262E1,5.025550291E0,6.452777864E0,-5.109713359E0,9.643840962E0
1.401049963E1,5.072929695E0,6.594172309E0,-6.537433852E0,1.058091515E1
1.402052563E1,4.775532120E0,6.959412203E0,-8.157834719E0,1.173837265E1
1.403055262E1,4.621955001E0,7.198047599E0,-9.835409660E0,1.303493922E1
1.404057862E1,4.326952447E0,6.567304938E0,-1.070557475E1,1.328387528E1
1.405060563E1,3.939792511E0,5.460643362E0,-1.065613187E1,1.260530592E1
1.406063262E1,3.586183021E0,4.462343848E0,-1.007272709E1,1.158589886E1
1.407065862E1,3.134948419E0,4.033599392E0,-9.396722306E0,1.069561666E1
1.408068562E1,2.611445155E0,4.130629842E0,-8.874864741E0,1.013138554E1
1.409071263E1,2.028144025E0,4.448824208E0,-8.340136285E0,9.667640781E0
1.410073862E1,1.596500373E0,4.907444136E0,-8.057067897E0,9.568080502E0
1.411076562E1,1.160684148E0,5.208461137E0,-7.812814497E0,9.461253906E0
1.412079162E1,7.898468605E-1,5.425042589E0,-7.699627604E0,9.451942150E0
1.413081863E1,6.566262379E-1,5.430586334E0,-7.708645765E0,9.452282554E0
1.414084562E1,6.833383656E-1,5.452362535E0,-7.816453804E0,9.554693015E0
1.415087162E1,7.648883128E-1,5.518377600E0,-7.995793755E0,9.745268762E0
1.416089863E1,1.057921818E0,5.437550368E0,-8.045749442E0,9.768328243E0
1.417092463E1,1.559441890E0,5.498159682E0,-8.023223628E0,9.850570353E0
1.418095162E1,2.064887490E0,5.754610375E0,-7.903207188E0,9.991996035E0
1.419097863E1,2.305470301E0,5.941429499E0,-7.625898308E0,9.938314888E0
1.420100463E1,2.425639353E0,6.080238891E0,-7.223603439E0,9.748511573E0
1.421103162E1,2.312359782E0,5.948841430E0,-6.656341660E0,9.221854825E0
1.422105762E1,1.968406093E0,5.475994642E0,-6.155803628E0,8.470835742E0
1.423108463E1,1.369864048E0,5.005926450E0,-5.897143273E0,7.855706583E0
1.424111162E1,4.846499777E-1,4.815266582E0,-5.299671854E0,7.176921319E0
1.425113762E1,-2.302411330E-1,4.753618218E0,-4.582361750E0,6.606658486E0
1.426116463E1,-7.875161603E-1,4.371486303E0,-3.535382119E0,5.677059180E0
1.427119063E1,-1.338986949E0,3.065791646E0,-1.108044443E0,3.524163298E0
1.428121762E1,-1.821255648E0,1.044730791E-1,2.250040158E0,2.896647627E0
1.429124462E1,-2.045049349E0,-3.344096014E0,5.361578080E0,6.641665793E0
1.430127063E1,-2.477425511E0,-7.586768156E0,8.350392301E0,1.155100601E1
1.431129762E1,-3.094416398E0,-1.169697601E1,1.078382570E1,1.620757716E1
1.432132362E1,-3.960805357E0,-1.432076435E1,1.292213141E1,1.969146391E1
1.433135637E1,-4.939534825E0,-1.544813559E1,1.450730456E1,2.176018803E1
1.434138337E1,-6.177823073E0,-1.537433788E1,1.638778549E1,2.330440466E1
1.435140937E1,-6.878998370E0,-1.524001214E1,1.757410134E1,2.425752721E1
1.436143638E1,-7.108363005E0,-1.488831615E1,1.750523751E1,2.405460710E1
1.437146237E1,-7.257311468E0,-1.420261785E1,1.736636965E1,2.357909494E1
1.438148937E1,-7.052506893E0,-1.381935157E1,1.727598924E1,2.322008044E1
1.439151638E1,-6.582545121E0,-1.206258253E1,1.635630642E1,2.136269077E1
1.440154238E1,-5.564541367E0,-8.840218234E0,1.471568880E1,1.804619284E1
1.441156937E1,-3.522254828E0,-5.345964260E0,1.269151606E1,1.421478782E1
1.442159537E1,-1.217617463E0,-2.187305381E0,1.066004365E1,1.095004237E1
1.443162238E1,1.053273866E0,3.628018972E-1,8.635366296E0,8.706926101E0
1.444164937E1,3.283837826E0,2.024871777E0,6.587231664E0,7.633827191E0
1.445167537E1,4.678248485E0,3.916045799E0,4.012497375E0,7.302161240E0
1.446170238E1,5.104369004E0,5.797338903E0,1.777814344E0,7.926180992E0
1.447172838E1,5.241412536E0,6.853892180E0,2.610927969E-1,8.632288968E0
1.448175537E1,5.413841078E0,7.369168704E0,-1.042341619E0,9.203303681E0
1.449178238E1,5.588913147E0,7.410369939E0,-2.013794519E0,9.497626080E0
1.450180838E1,5.843391573E0,6.894872975E0,-3.245040380E0,9.602852987E0
1.451183537E1,5.944981683E0,6.980063399E0,-5.608696032E0,1.074809581E1
1.452186137E1,5.373510493E0,7.512164117E0,-7.920961089E0,1.216753259E1
1.453188838E1,4.610714899E0,7.664976420E0,-1.025400481E1,1.360717348E1
1.454191537E1,3.581074894E0,7.221676197E0,-1.199024545E1,1.444793032E1
1.455194137E1,3.174538747E0,5.779635873E0,-1.269283285E1,1.430349233E1
1.456196837E1,3.643034037E0,3.831125809E0,-1.257868702E1,1.364450765E1
1.457199438E1,3.846739336E0,3.247942938E0,-1.194402789E1,1.296172593E1
1.458202137E1,3.812335489E0,3.928913474E0,-1.074680815E1,1.206085189E1
1.459204837E1,3.760967115E0,4.857360395E0,-9.367482719E0,1.120216748E1
1.460207437E1,3.594469403E0,5.465342184E0,-8.092648789E0,1.040582240E1
1.461210138E1,3.464957085E0,5.726164840E0,-7.332093848E0,9.927461487E0
1.462212737E1,3.215708408E0,5.624216296E0,-6.857763621E0,9.434061235E0
1.463215437E1,2.772285393E0,4.927280231E0,-6.461809473E0,8.585955884E0
1.464218037E1,2.303939207E0,4.159643142E0,-6.389063678E0,7.964351927E0
1.465220738E1,1.856420803E0,3.735333214E0,-6.543361759E0,7.759806410E0
1.466223437E1,1.332286332E0,3.655565790E0,-6.948436394E0,7.963599465E0
1.467226037E1,7.363699803E-1,4.036497856E0,-7.265502248E0,8.344044499E0
1.468228738E1,3.213933778E-1,4.269686278E0,-7.270267729E0,8.437434887E0
1.469231437E1,1.719917554E-1,4.233049087E0,-6.950093495E0,8.139538398E0
1.470234037E1,3.878987315E-1,4.236311249E0,-6.406971946E0,7.690649383E0
1.471236738E1,8.281332591E-1,4.654259114E0,-5.696549277E0,7.402608072E0
1.472239338E1,1.021522023E0,4.811598916E0,-4.864789283E0,6.918176504E0
1.473242037E1,1.065927533E0,4.575082844E0,-4.000202435E0,6.170024639E0
1.474244737E1,9.070937669E-1,3.680725482E0,-2.757977257E0,4.687963068E0
1.475247338E1,4.625890177E-1,1.974118822E0,-1.131704616E0,2.322044156E0
1.476250037E1,-2.163627666E-1,-1.591024455E-1,1.184195656E0,1.214267592E0
1.477252637E1,-9.778798673E-1,-2.151679173E0,3.625176056E0,4.327571344E0
1.478255338E1,-1.806986103E0,-4.367159363E0,6.466394860E0,8.009465785E0
1.479258037E1,-2.717985518E0,-6.902323498E0,8.861934208E0,1.155696296E1
1.480260637E1,-3.626655402E0,-8.905580165E0,1.019856268E1,1.401687084E1
1.481263337E1,-4.477020359E0,-9.864236434E0,1.041962837E1,1.503048658E1
1.482265938E1,-5.348591414E0,-1.091828827E1,1.080163398E1,1.626320219E1
1.483268637E1,-5.957903445E0,-1.269288080E1,1.177393239E1,1.830932332E1
1.484271337E1,-6.158828977E0,-1.466441691E1,1.306632609E1,2.058410006E1
1.485273937E1,-6.626766443E0,-1.586934445E1,1.453559573E1,2.251740815E1
1.486276638E1,-7.564466876E0,-1.627146566E1,1.624570984E1,2.420547132E1
1.487279337E1,-8.926420226E0,-1.536085771E1,1.728421510E1,2.478671054E1
1.488281937E1,-1.022671703E1,-1.269907183E1,1.660257243E1,2.327010051E1
1.489284638E1,-1.087856463E1,-8.695273944E0,1.456854011E1,2.015423822E1
1.490287238E1,-1.030079774E1,-4.925726041E0,1.236284524E1,1.682881913E1
1.491289937E1,-8.113711630E0,-2.373015582E0,1.022641063E1,1.326811945E1
1.492292638E1,-4.965385365E0,-8.587846559E-1,8.335211760E0,9.740036858E0
1.493295238E1,-1.619462389E0,4.545321393E-1,6.417493426E0,6.634265578E0
1.494297937E1,1.274057128E0,1.958486291E0,4.289125639E0,4.884208110E0
1.495300637E1,3.316317062E0,3.068071475E0,2.297979725E0,5.068701239E0
1.496303238E1,4.498833690E0,3.703444838E0,4.035765785E-1,5.841051471E0
1.497305937E1,4.868638212E0,4.343659111E0,-1.333169262E0,6.659455894E0
1.498308537E1,4.519525816E0,5.001526421E0,-3.161934489E0,7.445751128E0
1.499311237E1,3.523196814E0,5.566706007E0,-5.235849495E0,8.415179825E0
1.500313938E1,2.452702606E0,6.188341044E0,-7.205975838E0,9.810066398E0
1.501316537E1,1.965966634E0,6.817638273E0,-8.923593097E0,1.140068990E1
1.502319237E1,2.018367334E0,7.157823433E0,-9.537806849E0,1.209454433E1
1.503321938E1,2.403286325E0,7.136714984E0,-9.224700730E0,1.190813123E1
1.504324537E1,2.876986222E0,7.354275845E0,-8.948619765E0,1.193483216E1
1.505327237E1,3.074520077E0,7.534009314E0,-8.449759884E0,1.173083169E1
1.506329837E1,3.209131167E0,7.234887396E0,-7.714397671E0,1.105233233E1
1.507332538E1,3.338607525E0,6.725564507E0,-7.147240557E0,1.036641528E1
1.508335237E1,3.414978009E0,6.250690489E0,-6.770541875E0,9.827178826E0
1.509337837E1,3.473580558E0,5.687197241E0,-6.594750599E0,9.375537841E0
1.510340538E1,3.252627727E0,5.266126962E0,-6.676667751E0,9.104371070E0
1.511343237E1,3.075128480E0,4.997716960E0,-6.914316722E0,9.068702537E0
1.512345837E1,3.125773553E0,4.641239703E0,-7.120970187E0,9.056477388E0
1.513348538E1,3.359610724E0,4.396267095E0,-7.293583501E0,9.154807965E0
1.514351138E1,3.562266155E0,4.197873992E0,-7.482472540E0,9.289740660E0
1.515353837E1,3.584325069E0,4.299212671E0,-7.799287548E0,9.599974065E0
1.516356537E1,3.472187167E0,4.538216441E0,-7.866452175E0,9.722785713E0
1.517359138E1,3.640869690E0,4.714835975E0,-7.770488842E0,9.791123899E0
1.518361837E1,3.808074623E0,4.502261912E0,-7.381318048E0,9.447520881E0
1.519364537E1,3.928726948E0,3.953258649E0,-6.939594235E0,8.900624558E0
1.520367137E1,4.080877638E0,3.176286772E0,-6.610564978E0,8.392969039E0
1.521369838E1,3.931440056E0,2.565617895E0,-6.044134673E0,7.653115708E0
1.522372537E1,3.477314298E0,2.530728436E0,-5.323816177E0,6.843925761E0
1.523375137E1,2.970583187E0,2.184287633E0,-4.190707644E0,5.581891032E0
1.524377838E1,2.472981627E0,9.971063894E-1,-2.376634131E0,3.571869129E0
1.525380438E1,1.723951255E0,-8.891846225E-1,3.462370276E-2,1.940065985E0
1.526383137E1,9.596777773E-1,-2.523940696E0,2.437959144E0,3.637980602E0
1.527385838E1,-9.742689192E-2,-3.962865039E0,5.035765961E0,6.408800990E0
1.528388438E1,-1.403092605E0,-4.958236560E0,7.375400666E0,8.997183650E0
1.529391137E1,-2.947527324E0,-5.476700985E0,9.042254153E0,1.097472237E1
1.530393838E1,-4.676297854E0,-5.455786664E0,9.434664888E0,1.185943807E1
1.531396438E1,-6.364451578E0,-5.754468287E0,1.000225762E1,1.317821333E1
1.532399137E1,-7.405845364E0,-7.397235339E0,1.066323272E1,1.494222769E1
1.533401296E1,-7.516722021E0,-1.095002930E1,1.214023238E1,1.799415166E1
1.534403896E1,-7.076244249E0,-1.441844326E1,1.347838873E1,2.096739615E1
1.535406596E1,-6.993361137E0,-1.672943830E1,1.485577289E1,2.344088722E1
1.536409196E1,-7.352103020E0,-1.787870386E1,1.591085734E1,2.503710949E1
1.537411896E1,-8.229863645E0,-1.648643035E1,1.597025804E1,2.438405592E1
1.538414596E1,-9.052856909E0,-1.296403841E1,1.467894724E1,2.157526366E1
1.539417196E1,-8.963194535E0,-8.917247114E0,1.266759159E1,1.789759842E1
1.540419896E1,-7.532277954E0,-5.421408545E0,1.049203093E1,1.400748353E1
1.541422596E1,-5.334773859E0,-3.030884645E0,8.782233735E0,1.071324896E1
1.542425196E1,-2.906015601E0,-1.836707208E0,7.267825347E0,8.039882170E0
1.543427896E1,-6.867817909E-1,-1.103623363E0,5.683872514E0,5.830614076E0
1.544430596E1,1.062231800E0,-2.161663002E-1,4.048747188E0,4.191350387E0
1.545433196E1,2.137682693E0,1.013371004E0,2.494480085E0,3.437882922E0
1.546435896E1,2.759017476E0,2.592735527E0,8.769010842E-1,3.886310649E0
1.547438496E1,3.041521023E0,4.096441172E0,-9.003092426E-1,5.180949444E0
1.548441196E1,3.126355351E0,5.249877550E0,-2.667237825E0,6.667043549E0
1.549443896E1,3.128746862E0,6.135366440E0,-4.427581859E0,8.187506299E0
1.550446496E1,3.056379967E0,6.738048313E0,-5.946642292E0,9.492381583E0
1.551449196E1,2.936924275E0,7.446170686E0,-7.534188824E0,1.099249668E1
1.552451896E1,2.774800281E0,7.954401315E0,-8.804328609E0,1.218557422E1
1.553454496E1,2.734654468E0,7.792445721E0,-9.377957422E0,1.249586455E1
1.554457196E1,2.937868600E0,7.368270571E0,-9.544175636E0,1.241022851E1
1.555459796E1,3.478329667E0,6.894312227E0,-9.485905793E0,1.223162815E1
1.556462496E1,3.967488433E0,6.688190859E0,-9.323715726E0,1.214102699E1
1.557465196E1,4.267516669E0,6.515945919E0,-8.876519503E0,1.180939661E1
1.558467796E1,4.525362507E0,6.144046047E0,-8.317446749E0,1.128752090E1
1.559470496E1,4.833831199E0,5.742764500E0,-7.666155218E0,1.072917536E1
1.560473196E1,5.546869912E0,4.872871889E0,-6.878483230E0,1.009089579E1
1.561475796E1,6.694088361E0,3.431299050E0,-6.417730238E0,9.887967109E0
1.562478496E1,7.608235039E0,2.518567982E0,-6.277425129E0,1.018010272E1
1.563481096E1,7.970312174E0,2.665823092E0,-6.503161567E0,1.062655162E1
1.564483796E1,7.619954613E0,3.692732447E0,-6.777543331E0,1.084597044E1
1.565486496E1,6.640493951E0,4.742716084E0,-6.701551747E0,1.055937080E1
1.566489096E1,5.502238700E0,5.463330742E0,-6.729703751E0,1.026701155E1
1.567491796E1,4.440979584E0,5.808924576E0,-7.029759470E0,1.014314658E1
1.568494496E1,3.602746722E0,5.657805626E0,-7.055595977E0,9.735090294E0
1.569497096E1,2.999411130E0,5.202696952E0,-6.995042796E0,9.219281231E0
1.570499796E1,2.660397168E0,4.568367609E0,-6.935782435E0,8.720824140E0
1.571502396E1,2.491571095E0,3.646404665E0,-6.812475182E0,8.118744460E0
1.572505096E1,2.580180386E0,2.626426307E0,-6.788785188E0,7.722891317E0
1.573507796E1,2.576957985E0,1.806444943E0,-6.614345788E0,7.324856721E0
1.574510396E1,2.264924245E0,1.307363745E0,-5.562019463E0,6.146148575E0
1.575513096E1,1.990619665E0,8.785652018E-1,-3.886675819E0,4.454289212E0
1.576515796E1,1.704571536E0,5.025234541E-1,-1.944174061E0,2.633990646E0
1.577518396E1,8.682624078E-1,-3.900502145E-2,6.617574620E-1,1.092393674E0
1.578521096E1,-3.009187675E-1,-1.581456072E0,3.759054490E0,4.089259844E0
1.579523696E1,-1.904565023E0,-4.167909058E0,7.184515972E0,8.521508293E0
1.580526396E1,-3.881809182E0,-7.224995077E0,1.034554414E1,1.320224526E1
1.581529096E1,-6.356415750E0,-1.098229189E1,1.209041060E1,1.752691601E1
1.582531696E1,-9.409436492E0,-1.415562027E1,1.291440373E1,2.134715213E1
1.583534396E1,-1.234677475E1,-1.569451270E1,1.272806467E1,2.368046042E1
1.584537096E1,-1.489842014E1,-1.646586804E1,1.301432914E1,2.573830794E1
1.585539696E1,-1.615955229E1,-1.627760523E1,1.308225391E1,2.640524436E1
1.586542396E1,-1.583779171E1,-1.544824318E1,1.327412210E1,2.580089497E1
1.587544996E1,-1.457078193E1,-1.466681427E1,1.386618309E1,2.489365703E1
1.588547696E1,-1.267932695E1,-1.351006193E1,1.418676254E1,2.333562377E1
1.589550396E1,-1.064891289E1,-1.148125235E1,1.405595097E1,2.104253452E1
1.590552996E1,-8.873960177E0,-8.330828102E0,1.348512005E1,1.816585613E1
1.591555696E1,-7.429993195E0,-4.449537569E0,1.264344727E1,1.532514086E1
1.592558396E1,-5.970553311E0,-6.563631132E-1,1.184118355E1,1.327749778E1
1.593560996E1,-3.815280147E0,2.208266772E0,1.088223668E1,1.174120436E1
1.594563696E1,-9.191735297E-1,3.799010561E0,9.476205263E0,1.025065010E1
1.595566296E1,1.765571444E0,4.219989623E0,7.830728611E0,9.068950630E0
1.596568996E1,3.872566488E0,4.657618047E0,5.805609789E0,8.390189634E0
1.597571696E1,5.269278612E0,5.253646080E0,3.491808084E0,8.219417128E0
1.598574296E1,6.180479463E0,5.978284500E0,9.027720898E-1,8.645993835E0
1.599576996E1,7.179913629E0,6.723463018E0,-1.983007175E0,1.003436257E1
1.600579596E1,8.399142877E0,7.380446228E0,-4.292687178E0,1.197680052E1
1.601582296E1,9.552099198E0,7.950980694E0,-6.708840301E0,1.412335765E1
1.602584996E1,1.028884486E1,7.896297534E0,-8.530470171E0,1.552355516E1
1.603587596E1,1.062546673E1,7.138453361E0,-9.389592211E0,1.587521658E1
1.604590296E1,1.126489017E1,5.925102904E0,-9.191020183E0,1.569966391E1
1.605592896E1,1.181326076E1,4.197683372E0,-8.618860776E0,1.521375813E1
1.606595596E1,1.141493557E1,2.516397496E0,-7.928942538E0,1.412448725E1
1.607598296E1,1.030177890E1,1.487117679E0,-7.626011744E0,1.290326403E1
1.608600896E1,8.794964878E0,1.095101338E0,-7.451586962E0,1.157915379E1
1.609603596E1,6.916347460E0,1.503025029E0,-7.886174834E0,1.059654189E1
1.610606296E1,4.595643700E0,2.203056903E0,-8.130521790E0,9.595769136E0
1.611608896E1,2.290222224E0,2.886666580E0,-8.145742677E0,8.940418644E0
1.612611596E1,3.141065776E-1,3.928174970E0,-8.258017988E0,9.150086482E0
1.613614196E1,-1.186685400E0,4.928097671E0,-8.211888134E0,9.650361425E0
1.614616896E1,-1.995348016E0,5.702216983E0,-8.310396177E0,1.027420930E1
1.615619596E1,-2.238139905E0,6.200298600E0,-8.480766499E0,1.074133946E1
1.616622196E1,-2.070830600E0,6.070890362E0,-8.754247792E0,1.085269107E1
1.617624896E1,-1.519915881E0,5.634239008E0,-8.971371281E0,1.070235003E1
1.618627496E1,-8.158181459E-1,5.045721431E0,-8.961011184E0,1.031622923E1
1.619630196E1,-1.806421262E-1,4.765357381E0,-8.644245293E0,9.872397846E0
1.620632896E1,4.025664720E-1,4.394142509E0,-8.038088420E0,9.169591791E0
1.621635496E1,1.040216156E0,3.947523699E0,-7.080170070E0,8.172747471E0
1.622638196E1,1.699417508E0,4.031753718E0,-6.164368045E0,7.559265262E0
1.623640796E1,1.882116977E0,3.716816836E0,-4.366262108E0,6.035009238E0
1.624643496E1,1.837286375E0,2.603072235E0,-2.142934370E0,3.839762232E0
1.625646196E1,1.662827679E0,9.625437900E-1,9.805839121E-2,1.923824806E0
1.626648796E1,1.044033803E0,-1.041011378E0,3.015171130E0,3.356332554E0
1.627651496E1,1.753843099E-1,-3.369355693E0,5.964873911E0,6.852958355E0
1.628654096E1,-1.102492511E0,-4.875018402E0,8.229839671E0,9.628683979E0
1.629656796E1,-3.071188041E0,-5.631372703E0,9.724419567E0,1.164941588E1
1.630659496E1,-5.972516221E0,-6.427831303E0,1.075882651E1,1.388309451E1
1.631662096E1,-9.359407715E0,-7.930220155E0,1.192310188E1,1.710693610E1
1.632664796E1,-1.226760930E1,-1.033393157E1,1.273931588E1,2.048351895E1
1.633667425E1,-1.418368924E1,-1.298512230E1,1.312597003E1,2.328264441E1
1.634670125E1,-1.470490888E1,-1.580203481E1,1.351842813E1,2.546932563E1
1.635672825E1,-1.392620710E1,-1.763590641E1,1.365933082E1,2.629718155E1
1.636675425E1,-1.251563064E1,-1.699157482E1,1.331217929E1,2.495132748E1
1.637678125E1,-1.088702672E1,-1.380999369E1,1.297220697E1,2.185226373E1
1.638680725E1,-9.416563663E0,-9.219571552E0,1.214232685E1,1.791949420E1
1.639683425E1,-8.225169500E0,-4.717846707E0,1.118806009E1,1.466574851E1
1.640686125E1,-6.615730408E0,-1.193933316E0,1.042846585E1,1.240750843E1
1.641688725E1,-4.304001248E0,1.002476765E0,9.439992871E0,1.042318818E1
1.642691425E1,-1.513586270E0,1.670081735E0,8.122543849E0,8.429462318E0
1.643694025E1,1.406430781E0,1.705954403E0,6.417267723E0,6.787462928E0
1.644696725E1,3.949043975E0,1.844342502E0,4.336206250E0,6.148108020E0
1.645699425E1,5.705442308E0,2.218095649E0,2.082793418E0,6.466069027E0
1.646702025E1,6.676774755E0,2.648774657E0,-5.393647134E-2,7.183191314E0
1.647704725E1,7.033511043E0,3.166540926E0,-2.054881150E0,7.982468012E0
1.648707325E1,7.309617736E0,3.510188514E0,-3.949238688E0,9.019335954E0
1.649710025E1,7.399715728E0,3.578973989E0,-5.568078933E0,9.928159480E0
1.650712725E1,7.213274918E0,3.595881798E0,-7.064248102E0,1.071752314E1
1.651715325E1,6.896300281E0,3.811078337E0,-8.478238163E0,1.157427311E1
1.652718025E1,6.543048933E0,3.915988788E0,-9.511606060E0,1.219086163E1
1.653720625E1,6.417670012E0,4.149818650E0,-1.057123848E1,1.304448413E1
1.654723325E1,6.431651874E0,4.340978455E0,-1.139309622E1,1.378451599E1
1.655726025E1,6.280047605E0,4.207558443E0,-1.146039533E1,1.372891864E1
1.656728625E1,6.020614833E0,4.053230833E0,-1.088201215E1,1.308031618E1
1.657731325E1,5.763004053E0,4.231583190E0,-1.003141885E1,1.231859879E1
1.658733925E1,5.539252744E0,4.670708501E0,-9.367264618E0,1.184248645E1
1.659736625E1,5.157899678E0,5.075037616E0,-8.447260199E0,1.112277577E1
1.660739325E1,4.869677555E0,5.466372464E0,-7.669234362E0,1.060245930E1
1.661741925E1,4.608270763E0,5.740015140E0,-6.929270391E0,1.010933833E1
1.662744625E1,4.292607071E0,5.711038678E0,-6.297673452E0,9.523819043E0
1.663747225E1,4.031801957E0,5.578504518E0,-5.966884183E0,9.109272558E0
1.664749925E1,3.870217077E0,5.457269518E0,-5.620782226E0,8.738052624E0
1.665752625E1,3.840912001E0,5.159605311E0,-5.268475789E0,8.314503539E0
1.666755225E1,3.929179814E0,4.931878481E0,-5.100957738E0,8.110588709E0
1.667757925E1,3.868987407E0,4.895240997E0,-4.879372239E0,7.920904078E0
1.668760525E1,3.569642710E0,4.878038489E0,-4.846772257E0,7.747826139E0
1.669763225E1,3.206677383E0,4.678382679E0,-5.033508351E0,7.583287589E0
1.670765825E1,2.586025262E0,4.072756733E0,-4.808986380E0,6.811844395E0
1.671768525E1,2.084715398E0,3.412215199E0,-4.411849925E0,5.954298499E0
1.672771225E1,2.091796376E0,3.146277107E0,-4.240574453E0,5.679537253E0
1.673773825E1,2.043436979E0,3.160043499E0,-3.493090378E0,5.134509713E0
1.674776525E1,1.601993247E0,2.391888055E0,-1.343675539E0,3.176944253E0
1.675779125E1,9.093870449E-1,8.939123887E-1,9.332834458E-1,1.580215854E0
1.676781825E1,-1.625584424E-1,-1.202010952E0,3.798489282E0,3.987452370E0
1.677784525E1,-1.840381891E0,-3.232089967E0,7.459954328E0,8.335726101E0
1.678787125E1,-3.458287750E0,-5.023738239E0,1.047756024E1,1.212340582E1
