"Time (s)","Linear Acceleration x (m/s^2)","Linear Acceleration y (m/s^2)","Linear Acceleration z (m/s^2)","Absolute acceleration (m/s^2)"
3.555374991E-3,-7.284043184E-1,5.476911485E-2,3.878142393E-1,8.270262337E-1
1.350937500E-2,-9.518242358E-1,3.549862164E-1,2.306732422E-1,1.041726804E0
2.346337499E-2,-1.527106495E0,4.262547120E-1,-1.150921490E0,1.959175235E0
3.341837499E-2,-1.678730205E0,1.166859246E0,-3.395887434E0,3.963804620E0
4.337237499E-2,-5.728608537E-1,1.144356821E0,-4.889852203E0,5.054540203E0
5.332637500E-2,-2.240636666E0,-5.378403443E-1,-4.483507553E0,5.040988482E0
6.328037499E-2,-1.479066794E0,-1.613906364E0,-3.546490660E0,4.167724599E0
7.323437500E-2,6.086151887E-1,-1.695279726E0,-3.415406025E0,3.861267164E0
8.318837499E-2,1.449184160E0,-1.296725321E0,-5.146141512E0,5.501309276E0
9.314237500E-2,1.242618695E0,-2.044319909E0,-6.280348737E0,6.720574779E0
1.030963750E-1,9.693441018E-1,-2.774512598E0,-7.243405035E0,7.816934479E0
1.130503750E-1,4.517242333E-1,-2.852034106E0,-8.145634503E0,8.642309575E0
1.230043750E-1,5.761159256E-2,-3.154446837E0,-8.289468992E0,8.869563130E0
1.329583750E-1,-2.329377957E-1,-3.650118816E0,-6.835805572E0,7.752797251E0
1.429123750E-1,7.271788882E-1,-4.199615293E0,-4.208234088E0,5.989556902E0
1.528663750E-1,2.124706260E0,-3.953881085E0,-3.568196694E0,5.734071849E0
1.628203750E-1,2.631454035E0,-2.735236266E0,7.013384342E-1,3.859785404E0
1.727743750E-1,2.305069913E0,-2.135785418E0,9.981086022E-1,3.297142313E0
1.827283750E-1,2.084896515E0,-2.207231084E0,-5.495564103E-1,3.085559072E0
1.926823750E-1,1.623380462E0,-1.391124817E0,-9.226187092E-1,2.328479689E0
2.026363750E-1,5.095427076E-1,-3.990508336E-1,-1.762261335E0,1.877349289E0
2.125903750E-1,-4.374182893E-1,2.998363017E-1,-4.136353097E0,4.170210248E0
2.225443750E-1,1.640458717E0,-1.564568728E-2,-4.685479737E0,4.964380118E0
2.324983750E-1,1.531134934E0,1.163724188E0,-3.915659882E0,4.362455786E0
2.424523750E-1,8.054533714E-1,2.276982958E0,-3.858506273E0,4.552084927E0
2.524063750E-1,2.874110561E0,2.110457765E0,-3.044120695E0,4.688412770E0
2.623603750E-1,3.656383815E0,1.291940544E0,-1.584035279E0,4.188964161E0
2.723143750E-1,3.011140060E0,2.603127053E-1,-8.401817393E-1,3.136978247E0
2.822693750E-1,2.111087218E0,-9.022915949E-1,-6.059083664E-1,2.374435577E0
2.922233750E-1,1.154210403E0,-1.404708630E0,-9.702249849E-1,2.060763089E0
3.021773750E-1,-2.705774558E-1,-1.735195890E0,-2.303445702E0,2.896546053E0
3.121313750E-1,-9.491826099E-1,-2.275423214E0,-4.190346286E0,4.861841259E0
3.220853750E-1,-5.366946920E-1,-2.229614372E0,-5.974238811E0,6.399277366E0
3.320393750E-1,-1.323672214E-1,-2.835864801E0,-6.725645199E0,7.300270789E0
3.419933750E-1,-4.084019932E-1,-3.523189505E0,-5.126346933E0,6.233705909E0
3.519473750E-1,-7.804680727E-1,-2.454706739E0,-1.727465140E0,3.101427316E0
3.619013750E-1,2.809176354E-1,-3.089421414E0,9.338418549E-1,3.239675909E0
3.718553750E-1,7.649815759E-1,-4.183603570E0,2.616181108E0,4.993209311E0
3.818093750E-1,8.135821706E-1,-4.695885150E0,3.702324219E0,6.034936446E0
3.917633750E-1,1.415205697E0,-5.868765566E0,4.274515201E0,7.397073519E0
4.017173750E-1,4.563142537E0,-7.746595949E0,4.592065789E0,1.009549834E1
4.116713750E-1,8.739650803E0,-9.245872913E0,8.355949495E0,1.522135191E1
4.216253750E-1,1.128507592E1,-8.624041994E0,1.450004934E1,2.029725276E1
4.315793750E-1,1.376964205E1,-8.371547527E0,1.856458927E1,2.458312073E1
4.415333750E-1,1.457604209E1,-6.774317422E0,1.819120947E1,2.427493525E1
4.514873750E-1,1.324077660E1,-5.340157390E0,1.410337423E1,2.006839830E1
4.614413750E-1,1.174235275E1,-6.360671938E0,8.421462868E0,1.578803447E1
4.713953750E-1,1.033253409E1,-6.373429978E0,3.645872276E0,1.267573489E1
4.813493750E-1,8.022757605E0,-4.858877455E0,4.123447707E-1,9.388469414E0
4.913033750E-1,5.673332323E0,-2.835054084E0,-1.319015199E0,6.477965144E0
5.012573750E-1,4.911250674E0,-2.467764156E0,-1.077535425E0,5.601011132E0
5.112113750E-1,4.484199278E0,-1.146113325E0,1.454600143E-1,4.630634680E0
5.211663750E-1,4.999943579E0,1.131842610E0,2.209476269E0,5.582319310E0
5.311203750E-1,5.098495476E0,3.003697724E0,4.923002408E0,7.697584610E0
5.410743750E-1,4.026301482E0,5.033843397E0,6.931235640E0,9.465342596E0
5.510283750E-1,2.276601720E0,6.240120478E0,7.420102630E0,9.958912692E0
5.609823750E-1,7.028546172E-1,6.417094061E0,6.954118134E0,9.488564687E0
5.709363750E-1,-9.250441343E-1,6.102581686E0,5.908095692E0,8.544167871E0
5.808903750E-1,-2.599593142E0,5.578038495E0,4.399364365E0,7.564840036E0
5.908443750E-1,-4.551905943E0,4.839628714E0,2.911621034E0,7.253922445E0
6.007983750E-1,-5.918704296E0,4.535164779E0,1.692731509E0,7.646183367E0
6.107523750E-1,-6.056188708E0,4.869043717E0,1.002953020E0,7.835235998E0
6.207063750E-1,-5.313918595E0,5.185721900E0,5.532484885E-1,7.445503767E0
6.306603750E-1,-4.410620840E0,5.690262351E0,4.849704051E-1,7.215806131E0
6.406143750E-1,-3.736817529E0,6.132689584E0,1.287170970E0,7.295923238E0
6.505683750E-1,-3.031497141E0,6.539087445E0,2.778775803E0,7.724715819E0
6.605223750E-1,-2.380114394E0,6.876254271E0,4.082542341E0,8.343558551E0
6.704763750E-1,-2.195304957E0,7.196268291E0,4.619037241E0,8.828428297E0
6.804303750E-1,-2.405996509E0,7.148961393E0,4.033535657E0,8.553705518E0
6.903843750E-1,-2.583297536E0,7.098233873E0,3.106553171E0,8.167559175E0
7.003383750E-1,-2.612802587E0,7.287261491E0,2.414227635E0,8.109217747E0
7.102891250E-1,-2.670204703E0,7.601513080E0,1.648669085E0,8.223813228E0
7.202431250E-1,-2.732429017E0,8.181677325E0,9.834722905E-1,8.681775736E0
7.301971250E-1,-2.606300483E0,8.745965211E0,8.142576702E-1,9.162299123E0
7.401511250E-1,-2.397718606E0,9.135767503E0,9.377821474E-1,9.491614075E0
7.501051250E-1,-2.048456229E0,9.171126201E0,1.337881533E0,9.491873141E0
7.600601250E-1,-2.203647764E0,8.987946383E0,1.869888110E0,9.441171813E0
7.700141250E-1,-2.522104086E0,8.934713917E0,2.174674226E0,9.535162808E0
7.799681250E-1,-2.066322396E0,8.227333555E0,1.744355407E0,8.660339569E0
7.899221250E-1,-4.004009557E-1,6.780144757E0,9.296978601E-1,6.855291530E0
7.998761250E-1,1.911531395E0,4.301221189E0,5.436046757E-2,4.707165926E0
8.098301250E-1,4.020713298E0,9.275625300E-1,-7.111266732E-1,4.187148053E0
8.197841250E-1,5.615966460E0,-2.539234089E0,-1.396294633E0,6.319527493E0
8.297381250E-1,5.827792372E0,-5.253561296E0,-1.551059321E0,7.998053215E0
8.396921250E-1,5.363176124E0,-6.205526596E0,-1.949530111E0,8.430473659E0
8.496461250E-1,6.545722865E0,-5.974959188E0,-2.609856175E0,9.238937946E0
8.596001250E-1,8.507697020E0,-6.859870958E0,-2.828372471E0,1.128886305E1
8.695541250E-1,1.118233801E1,-8.589525295E0,-2.251427702E0,1.427913004E1
8.795081250E-1,1.249884212E1,-9.527530367E0,-1.942859023E0,1.583570618E1
8.894621250E-1,1.273851013E1,-9.993989657E0,-2.173503029E0,1.633626595E1
8.994161250E-1,1.259463705E1,-1.088841835E1,-1.964962083E0,1.676435542E1
9.093701250E-1,1.215568540E1,-1.239560953E1,-1.167476200E0,1.740042597E1
9.193241250E-1,1.104133942E1,-1.425056969E1,-1.499554268E-1,1.802810027E1
9.292781250E-1,9.836387315E0,-1.577371558E1,9.180029903E-1,1.861202160E1
9.392321250E-1,9.064820897E0,-1.634002660E1,1.653035932E0,1.875899717E1
9.491861250E-1,8.491102622E0,-1.599777153E1,1.659832735E0,1.818742869E1
9.591401250E-1,7.574514731E0,-1.505439345E1,8.367359751E-1,1.687329732E1
9.690951250E-1,6.624400660E0,-1.380481306E1,-1.104363620E-1,1.531233959E1
9.790491250E-1,5.703862975E0,-1.277510902E1,-2.698723912E-1,1.399322316E1
9.890031250E-1,4.215855934E0,-1.044297747E1,9.474161661E-1,1.130162895E1
9.989571250E-1,2.597232036E0,-7.553061882E0,1.970442678E0,8.226603332E0
1.008911125E0,2.326525247E-1,-3.459245524E0,2.514837166E0,4.283096166E0
1.018865125E0,5.306172788E-2,-1.781228533E0,2.823868361E0,3.339135091E0
1.028819125E0,4.602267426E-1,-5.747561556E-1,3.255550750E0,3.337778300E0
1.038773125E0,7.864411497E-1,3.359289712E-1,3.760145581E0,3.856168143E0
1.048727125E0,-6.741442037E-1,3.180511093E0,4.033155588E0,5.180392381E0
1.058681125E0,-4.771281195E0,8.047610026E0,3.659657671E0,1.004600645E1
1.068635125E0,-5.594318313E0,8.591651927E0,1.951811110E0,1.043659172E1
1.078589125E0,-6.428697860E0,8.383318557E0,-4.597197890E-2,1.056457759E1
1.088543125E0,-7.451546032E0,8.177457390E0,-8.848685002E-1,1.109861883E1
1.098497125E0,-7.440380189E0,7.540041302E0,-1.192254215E0,1.065987572E1
1.108451125E0,-7.178712611E0,6.783915042E0,-1.389788436E0,9.974313507E0
1.118405125E0,-6.992313901E0,6.242727751E0,-1.452451876E0,9.485447797E0
1.128359125E0,-7.050104856E0,5.667896166E0,-1.343492667E0,9.145162546E0
1.138313125E0,-7.090986249E0,5.365636632E0,-9.475227316E-1,8.942591447E0
1.148267125E0,-6.598821430E0,4.956797560E0,-1.392935407E-1,8.254313358E0
1.158221125E0,-5.923832304E0,4.738905746E0,1.114810256E0,7.667582327E0
1.168175125E0,-5.329475697E0,5.159662614E0,2.239874189E0,7.748707368E0
1.178129125E0,-4.931503090E0,5.778447134E0,3.082163265E0,8.198164697E0
1.188083125E0,-4.729497576E0,6.395174603E0,3.480477934E0,8.682173241E0
1.198037125E0,-4.520654914E0,6.946541312E0,3.275635936E0,8.911820680E0
1.207992125E0,-4.482450376E0,7.502458323E0,2.684406420E0,9.142498570E0
1.217946125E0,-4.893870410E0,7.981182148E0,1.708999633E0,9.516822779E0
1.227900125E0,-5.392952485E0,8.082829560E0,1.042193685E0,9.772524642E0
1.237854125E0,-5.923974976E0,7.844080144E0,9.551075935E-1,9.875996321E0
1.247808125E0,-6.561472340E0,7.539674681E0,1.277605949E0,1.007630342E1
1.257762125E0,-7.067814319E0,7.453675003E0,1.656912636E0,1.040464463E1
1.267716125E0,-7.313157640E0,7.369923579E0,1.920275760E0,1.055866977E1
1.277670125E0,-7.432046737E0,7.142673297E0,2.120199226E0,1.052370397E1
1.287624125E0,-7.344036201E0,6.866881185E0,2.252697279E0,1.030357074E1
1.297578125E0,-7.140691091E0,6.671246797E0,2.182975226E0,1.001301073E1
1.307532125E0,-6.876844840E0,6.520975694E0,1.935284686E0,9.672613182E0
1.317486125E0,-6.145392660E0,5.979786649E0,1.623331053E0,8.726906842E0
1.327440125E0,-4.795360029E0,5.317641517E0,1.235340081E0,7.266282008E0
1.337394125E0,-3.051258391E0,4.113248994E0,5.447196666E-1,5.150312085E0
1.347348125E0,-1.111631709E0,1.896924466E0,-2.357256751E-1,2.211247178E0
1.357302125E0,1.362921649E0,-1.271873485E0,-7.095432472E-1,1.994660172E0
1.367256125E0,3.671971323E0,-4.597694319E0,-8.956015031E-1,5.951829004E0
1.377210125E0,3.990418873E0,-6.513037514E0,-3.385338327E-1,7.645763899E0
1.387164125E0,4.996943373E0,-7.988689388E0,2.402025227E-1,9.425831447E0
1.397118125E0,7.848360305E0,-9.632786681E0,5.100982296E-1,1.243573636E1
1.407072125E0,1.172587997E1,-1.211179386E1,8.576801900E-1,1.687979345E1
1.417026125E0,1.431324717E1,-1.406817399E1,8.088921920E-1,2.008573799E1
1.426980125E0,1.416156104E1,-1.488842374E1,1.984357882E-1,2.054882841E1
1.436934125E0,1.367857050E1,-1.576494475E1,-5.800671816E-2,2.087199413E1
1.446889125E0,1.351688680E1,-1.693571403E1,2.982196927E-1,2.167056930E1
1.456843125E0,1.314442150E1,-1.803518353E1,5.381321204E-1,2.232337895E1
1.466797125E0,1.241295821E1,-1.844438221E1,3.185247338E-1,2.223461771E1
1.476751125E0,1.170844825E1,-1.800998320E1,-3.262676167E-1,2.148380101E1
1.486705125E0,1.071847605E1,-1.669938595E1,-1.079624124E0,1.987261453E1
1.496659125E0,9.567562160E0,-1.457420840E1,-1.816724056E0,1.752844210E1
1.506613125E0,8.209031185E0,-1.202725716E1,-2.707087770E0,1.481119279E1
1.516567125E0,6.870107093E0,-9.406809338E0,-3.711257011E0,1.222537779E1
1.526521125E0,5.662216766E0,-6.962483745E0,-4.332776273E0,9.965431694E0
1.536475125E0,4.820891896E0,-4.397509629E0,-4.293095899E0,7.810874599E0
1.546429125E0,3.890829096E0,-1.501267356E0,-4.023291335E0,5.794758658E0
1.556383125E0,2.707699973E0,1.305544676E0,-3.693173912E0,4.761892438E0
1.566337125E0,1.330473695E0,3.658306965E0,-3.341334082E0,5.130095862E0
1.576291125E0,1.836294687E-1,5.395741607E0,-2.582566634E0,5.984763796E0
1.586245125E0,-7.432097608E-1,6.765129107E0,-1.336816170E0,6.935878463E0
1.596199125E0,-1.755283268E0,8.116457482E0,-4.803999290E-3,8.304090828E0
1.606153125E0,-2.708371233E0,9.339080454E0,9.437148786E-1,9.769559675E0
1.616107125E0,-3.238666331E0,9.992063584E0,1.177102983E0,1.056957264E1
1.626061125E0,-3.875695333E0,1.019703656E1,9.768802126E-1,1.095239078E1
1.636015125E0,-4.945803040E0,1.002911388E1,5.268877054E-1,1.119471767E1
1.645969125E0,-6.232664693E0,9.409080981E0,-6.433917962E-2,1.128632153E1
1.655923125E0,-7.499246448E0,8.721371237E0,-7.075095125E-1,1.152395693E1
1.665877125E0,-8.495400326E0,8.001237513E0,-1.109510266E0,1.172274036E1
1.675832125E0,-9.057521233E0,7.384102492E0,-9.678708959E-1,1.172605793E1
1.685786125E0,-9.108865634E0,7.172132739E0,-4.832676228E-1,1.160364032E1
1.695740125E0,-8.764927731E0,7.236153318E0,4.108370662E-2,1.136607060E1
1.705694125E0,-8.195459797E0,7.190585382E0,4.169988620E-1,1.091072717E1
1.715648000E0,-7.608903376E0,7.040896661E0,8.278289115E-1,1.039975659E1
1.725602000E0,-7.025049537E0,6.933754621E0,1.177174027E0,9.940523770E0
1.735556000E0,-6.605965558E0,6.811147864E0,1.329124743E0,9.581079728E0
1.745510000E0,-6.307012040E0,6.893442746E0,1.557605864E0,9.472280074E0
1.755464000E0,-6.263309950E0,7.626965425E0,1.951695481E0,1.006025687E1
1.765418000E0,-6.042394542E0,7.720670564E0,2.071044315E0,1.002040470E1
1.775372000E0,-5.375886217E0,6.823039931E0,1.993112479E0,8.912155961E0
1.785326000E0,-5.486503258E0,7.038205188E0,2.412584713E0,9.244382903E0
1.795280000E0,-5.564667082E0,6.853415047E0,2.671612712E0,9.223466378E0
1.805234000E0,-4.944720721E0,6.855263937E0,2.873163897E0,8.927484384E0
1.815188000E0,-4.212906598E0,7.201578147E0,2.692866172E0,8.767145376E0
1.825142000E0,-4.327713754E0,6.938489111E0,2.736665325E0,8.623286762E0
1.835096000E0,-4.072213234E0,6.565846642E0,2.861209849E0,8.238918895E0
1.845050000E0,-3.410547574E0,6.483417858E0,2.780747484E0,7.835757682E0
1.855004000E0,-2.713716758E0,6.122044728E0,2.771071512E0,7.247242760E0
1.864958000E0,-2.093849918E0,4.855827840E0,2.283212582E0,5.759889859E0
1.874912000E0,-1.178402234E0,2.914467459E0,9.241032442E-1,3.276693333E0
1.884866000E0,2.723434246E-1,1.661696827E-1,-6.904672909E-1,7.606105338E-1
1.894820000E0,2.654043583E0,-2.783525496E0,-1.736920087E0,4.220053663E0
1.904775000E0,5.053798774E0,-6.189761918E0,-1.850432085E0,8.202324887E0
1.914729000E0,5.093884946E0,-8.200493665E0,-9.954253149E-1,9.704979740E0
1.924683000E0,5.354583056E0,-8.567015854E0,-3.205174649E-1,1.010782132E1
1.934637000E0,7.838674977E0,-9.317687246E0,9.774205685E-3,1.217637945E1
1.944591000E0,1.018105495E1,-1.014125880E1,5.284210646E-1,1.437978577E1
1.954545000E0,1.264996691E1,-1.181082481E1,2.966339278E-1,1.730910851E1
1.964499000E0,1.390035422E1,-1.421757736E1,-9.429366142E-1,1.990599113E1
1.974453000E0,1.393232913E1,-1.619571147E1,-1.952805721E0,2.145283933E1
1.984407000E0,1.295985063E1,-1.828322593E1,-1.817557284E0,2.248416317E1
1.994361000E0,1.162937051E1,-2.038861650E1,-6.766585064E-1,2.348181866E1
2.004315000E0,1.055119423E1,-2.141599100E1,9.634948397E-1,2.389352825E1
2.014269000E0,9.149760475E0,-2.039433507E1,2.174612246E0,2.245831602E1
2.024223000E0,7.101565617E0,-1.712786640E1,2.197311137E0,1.867148141E1
2.034177000E0,6.122965665E0,-1.407385514E1,8.113491189E-1,1.536952812E1
2.044131000E0,5.375098597E0,-1.134414333E1,-5.826656842E-1,1.256665318E1
2.054085000E0,4.725365349E0,-9.010651706E0,-1.266106961E0,1.025299706E1
2.064039000E0,3.833916977E0,-6.879242783E0,-1.235686237E0,7.971814168E0
2.073993000E0,2.504598107E0,-3.942788624E0,-7.809166273E-1,4.735865770E0
2.083947000E0,1.704090895E0,-7.366439223E-2,-6.152579912E-1,1.813255254E0
2.093901000E0,1.300840006E0,3.742365952E0,-5.850514213E-1,4.004968515E0
2.103855000E0,8.726817334E-1,6.515596256E0,-4.886703770E-1,6.591916771E0
2.113809000E0,2.023563462E-1,8.362724664E0,4.322729588E-2,8.365284244E0
2.123763000E0,-9.067382562E-1,9.435505133E0,9.511818460E-1,9.526577470E0
2.133718000E0,-2.002039862E0,9.764788159E0,1.935819998E0,1.015414450E1
2.143672000E0,-2.985353254E0,9.644148991E0,2.605002401E0,1.042631197E1
2.153626000E0,-3.971344671E0,9.204940649E0,2.668948721E0,1.037428543E1
2.163580000E0,-5.153387382E0,8.585266183E0,2.187949891E0,1.024945470E1
2.173534000E0,-6.245748423E0,8.054454192E0,1.353338063E0,1.028178630E1
2.183488000E0,-7.192920760E0,7.476663331E0,4.155616164E-1,1.038322181E1
2.193442000E0,-7.883645328E0,6.934898921E0,-3.198472278E-1,1.050461751E1
2.203396000E0,-8.293398905E0,6.609448745E0,-7.055621704E-1,1.062840986E1
2.213350000E0,-8.184541292E0,6.581041217E0,-5.996859057E-1,1.051933662E1
2.223304000E0,-7.884828220E0,6.706661628E0,-1.131145330E-1,1.035193804E1
2.233258000E0,-7.192768148E0,6.980782607E0,6.712030542E-1,1.004578284E1
2.243212000E0,-6.526321803E0,7.156431211E0,1.346737726E0,9.778603502E0
2.253166000E0,-6.014252477E0,7.200601662E0,1.767208518E0,9.546880281E0
2.263120000E0,-5.605962458E0,7.372303981E0,1.894034772E0,9.453308880E0
2.273074000E0,-5.290090021E0,7.518101964E0,1.769354739E0,9.361491642E0
2.283028000E0,-4.910172447E0,7.722510683E0,1.549548693E0,9.281598238E0
2.292982000E0,-4.555629449E0,7.888912500E0,1.271775398E0,9.198158119E0
2.302936000E0,-4.256803401E0,8.030545512E0,1.056933346E0,9.150253795E0
2.312890000E0,-4.021968695E0,8.350525033E0,8.377003272E-1,9.306408671E0
2.322844000E0,-3.873182784E0,8.767838475E0,6.280976728E-1,9.605781753E0
2.332798000E0,-3.739272190E0,8.996752290E0,3.245907815E-1,9.748285360E0
2.342752000E0,-3.760375376E0,8.962206355E0,-9.437859222E-2,9.719592226E0
2.352706000E0,-3.797436783E0,8.856897417E0,-3.940767534E-1,9.644711217E0
2.362660000E0,-3.796645070E0,8.718497915E0,-4.756359100E-1,9.521184233E0
2.372614000E0,-3.847298915E0,8.410238553E0,-7.337320089E-1,9.277509586E0
2.382569000E0,-3.688038887E0,7.610479785E0,-1.035139604E0,8.520126020E0
2.392523000E0,-3.217244471E0,5.995069517E0,-1.288572109E0,6.924733828E0
2.402477000E0,-2.921564809E0,3.690009983E0,-1.322518266E0,4.888841292E0
2.412431000E0,-2.646232873E0,9.143226796E-1,-1.154013498E0,3.028247271E0
2.422385000E0,-1.614255443E0,-1.665651884E0,-9.818539274E-1,2.518780254E0
2.432339000E0,-5.619642019E-2,-4.291411316E0,-7.912367436E-1,4.364106404E0
2.442293000E0,1.275927944E0,-6.285472652E0,-1.938549332E-1,6.416598656E0
2.452247000E0,3.424253447E0,-7.785622020E0,4.357777798E-1,8.516532404E0
2.462201000E0,5.792616692E0,-9.107173449E0,6.368939316E-1,1.081206041E1
2.472155000E0,8.325291374E0,-1.088160986E1,3.726643959E-1,1.370615877E1
2.482109000E0,1.127485382E1,-1.350035321E1,-3.820861606E-1,1.759340375E1
2.492063000E0,1.296100370E1,-1.591529772E1,-1.577212747E0,2.058572123E1
2.502017000E0,1.321741113E1,-1.799943132E1,-2.589862790E0,2.248081124E1
2.511971000E0,1.258088323E1,-2.018586079E1,-2.725672560E0,2.394111295E1
2.521925000E0,1.118502422E1,-2.181638260E1,-2.017464817E0,2.459937968E1
2.531879000E0,9.842936196E0,-2.179113432E1,-8.580052221E-1,2.392641011E1
2.541833000E0,9.390941164E0,-1.963864560E1,-1.143142354E-1,2.176876764E1
2.551787000E0,9.527239176E0,-1.607699896E1,-5.768253390E-1,1.869681549E1
2.561741000E0,9.629968908E0,-1.229650624E1,-1.873220877E0,1.573052203E1
2.571695000E0,9.156227496E0,-8.877692454E0,-3.294610151E0,1.317210618E1
2.581649000E0,8.221095160E0,-6.142973667E0,-4.417552714E0,1.117306149E1
2.591603000E0,7.011593340E0,-3.957060508E0,-5.031450716E0,9.494012078E0
2.601557000E0,5.420358385E0,-1.892608051E0,-5.205765570E0,7.749983576E0
2.611512000E0,3.809220677E0,-2.541960061E-2,-4.781485755E0,6.113379945E0
2.621466000E0,2.390789655E0,1.718801905E0,-3.674804299E0,4.708963984E0
2.631420000E0,1.257292283E0,3.267634022E0,-1.977631098E0,4.021099445E0
2.641374000E0,1.674332660E-1,4.646930798E0,-2.695798843E-1,4.657754079E0
2.651328000E0,-1.022377471E0,5.913152949E0,8.852425759E-1,6.065829532E0
2.661282000E0,-2.120998541E0,7.084566007E0,1.637144369E0,7.574295479E0
2.671236000E0,-3.112966982E0,8.198555898E0,1.950114248E0,8.983864860E0
2.681190000E0,-3.804599622E0,9.019045385E0,1.934421490E0,9.977982984E0
2.691144000E0,-4.390506418E0,9.500866479E0,1.721625964E0,1.060693200E1
2.701098000E0,-4.974605255E0,9.386563938E0,1.212032057E0,1.069220752E1
2.711052625E0,-5.581163832E0,8.765231786E0,8.592286058E-1,1.042674215E1
2.721006625E0,-6.464123801E0,8.103142202E0,6.278051658E-1,1.038460155E1
2.730960625E0,-7.389534556E0,7.698052365E0,4.775378631E-1,1.068144529E1
2.740914625E0,-7.953500260E0,7.348250290E0,5.696684933E-1,1.084340679E1
2.750868625E0,-8.051784938E0,7.124325904E0,1.047035179E0,1.080201569E1
2.760822625E0,-7.862859061E0,7.013536370E0,1.742764818E0,1.067948848E1
2.770776625E0,-7.494857528E0,6.875148563E0,2.460413622E0,1.046394726E1
2.780730625E0,-7.004810570E0,6.680584801E0,3.069104093E0,1.015465333E1
2.790684625E0,-6.692410210E0,6.612453629E0,3.550977813E0,1.005596046E1
2.800638625E0,-6.497226643E0,6.637242900E0,3.928378161E0,1.008459728E1
2.810592625E0,-6.460609624E0,6.735574940E0,4.129939871E0,1.020606926E1
2.820546625E0,-6.300678921E0,6.913871748E0,4.171791902E0,1.024226660E1
2.830500625E0,-5.973811964E0,7.069735129E0,4.015729716E0,1.008928488E1
2.840454625E0,-5.652910922E0,7.423124471E0,3.571662046E0,9.990743144E0
2.850408625E0,-5.084315978E0,7.815864989E0,2.996880455E0,9.793840256E0
2.860363625E0,-4.566122278E0,8.035522077E0,2.362953254E0,9.539530166E0
2.870317625E0,-4.117415720E0,8.320649854E0,1.565324042E0,9.414699441E0
2.880271625E0,-3.677830233E0,8.630595553E0,7.664027417E-1,9.412809782E0
2.890225625E0,-3.314204171E0,8.804147345E0,7.565719642E-2,9.407586501E0
2.900179625E0,-2.829726686E0,8.665471855E0,-5.168974451E-1,9.130440217E0
2.910133625E0,-1.658682588E0,7.771853582E0,-1.323861079E0,8.056397717E0
2.920087625E0,-5.351693362E-2,5.816104957E0,-2.408362877E0,6.295248421E0
2.930041625E0,1.348888624E0,3.151329979E0,-3.598716820E0,4.970024538E0
2.939995625E0,2.881309068E0,-4.619920170E-1,-4.739098120E0,5.565467596E0
2.949949625E0,3.597390672E0,-4.671172185E0,-4.973566790E0,7.713458099E0
2.959903625E0,3.439198930E0,-7.707985030E0,-4.295323688E0,9.470529451E0
2.969857625E0,5.551769294E0,-1.059658616E1,-3.883054054E0,1.257727671E1
2.979811625E0,8.165313308E0,-1.300735107E1,-3.098424371E0,1.566728301E1
2.989765625E0,1.129732467E1,-1.516226522E1,-1.732831714E0,1.898753636E1
2.999719625E0,1.387130408E1,-1.727557993E1,-4.457940602E-1,2.215981659E1
3.009673625E0,1.413837917E1,-1.791776793E1,3.014274021E-1,2.282610417E1
3.019627625E0,1.355787344E1,-1.836056705E1,8.676858723E-1,2.284029846E1
3.029581625E0,1.283363264E1,-1.939941613E1,2.150515870E0,2.335945614E1
3.039535625E0,1.149400396E1,-2.047519037E1,3.170381377E0,2.369381493E1
3.049489625E0,9.532707492E0,-2.052158686E1,3.264233573E0,2.286182976E1
3.059443625E0,7.821667766E0,-1.940141938E1,2.101357158E0,2.102401633E1
3.069397625E0,6.497014389E0,-1.724570768E1,2.991868953E-1,1.843136300E1
3.079351625E0,5.726494623E0,-1.433321307E1,-1.567257132E0,1.551418810E1
3.089306625E0,5.234605207E0,-1.054165742E1,-3.217285402E0,1.220158015E1
3.099260625E0,5.263778136E0,-7.351591389E0,-4.465892816E0,1.008451560E1
3.109214625E0,4.478729208E0,-3.814201920E0,-4.682783586E0,7.519016805E0
3.119168625E0,3.564414715E0,-9.950756514E-1,-4.264985994E0,5.646709957E0
3.129122625E0,2.657672365E0,1.538925179E0,-3.552784603E0,4.696146457E0
3.139076625E0,2.032499762E0,4.150354840E0,-2.490896326E0,5.249863340E0
3.149030625E0,1.394684894E0,6.559763199E0,-9.667669415E-1,6.775712324E0
3.158984625E0,5.721003503E-1,8.940381038E0,5.696671776E-1,8.976760697E0
3.168938625E0,-7.735620725E-1,1.038517423E1,1.537402418E0,1.052681568E1
3.178892625E0,-2.861779953E0,1.120810902E1,2.323015748E0,1.179863952E1
3.188846625E0,-4.815099059E0,1.118040959E1,2.162957722E0,1.236386362E1
3.198800625E0,-6.224817730E0,1.012627122E1,1.800959086E0,1.202219523E1
3.208754625E0,-7.160229562E0,8.344580753E0,1.430254823E0,1.108812627E1
3.218708625E0,-8.407774537E0,6.827809505E0,1.133911794E0,1.089015203E1
3.228662625E0,-9.871102234E0,6.234146377E0,8.153220096E-1,1.170333245E1
3.238616625E0,-1.026680086E1,6.153644836E0,5.706790383E-1,1.198333089E1
3.248570625E0,-9.467996941E0,6.299248692E0,1.039039696E0,1.141941783E1
3.258524625E0,-8.285375356E0,6.482106328E0,2.019557097E0,1.071185129E1
3.268478625E0,-7.067081662E0,6.328024594E0,3.105681936E0,9.981623053E0
3.278432625E0,-6.008466657E0,5.996726618E0,4.107673674E0,9.430555907E0
3.288386625E0,-5.375735359E0,5.814322141E0,4.771078881E0,9.244894066E0
3.298340625E0,-5.312107127E0,5.622291393E0,4.952261875E0,9.184418344E0
3.308294625E0,-5.366419575E0,5.614998745E0,4.844740934E0,9.154134841E0
3.318248625E0,-4.973849210E0,5.746265813E0,4.502377102E0,8.833467401E0
3.328202625E0,-5.142023318E0,6.289915366E0,4.017955458E0,9.063520574E0
3.338157625E0,-5.159629869E0,6.932292817E0,3.428862222E0,9.297072670E0
3.348111625E0,-4.983320530E0,7.659373618E0,2.850165336E0,9.571986741E0
3.358065625E0,-4.754259365E0,8.156084062E0,2.364957826E0,9.732302650E0
3.368019625E0,-4.636375405E0,8.383939531E0,1.905489614E0,9.768178419E0
3.377973625E0,-4.717778002E0,8.466083556E0,1.448371397E0,9.799478545E0
3.387927625E0,-4.737925168E0,8.313122149E0,1.161481269E0,9.638722607E0
3.397881625E0,-4.829905379E0,8.041680949E0,1.247748750E0,9.463270862E0
3.407835625E0,-4.876625801E0,7.757089362E0,1.464357977E0,9.278914746E0
3.417789625E0,-4.276682180E0,6.815431534E0,1.452957953E0,8.176258574E0
3.427743625E0,-3.159837677E0,5.368291853E0,1.373233799E0,6.378785357E0
3.437697625E0,-1.835322295E0,3.115768383E0,1.045676286E0,3.764287374E0
3.447651625E0,-1.071063727E-1,-2.080217135E-1,5.060007933E-1,5.574779019E-1
3.457605625E0,2.041295729E0,-4.574185588E0,1.595620367E-1,5.011538895E0
3.467559625E0,3.189770744E0,-8.623617486E0,4.913697441E-1,9.207760866E0
3.477513625E0,3.736685382E0,-1.136886068E1,3.492572607E-1,1.197229265E1
3.487467625E0,5.562191956E0,-1.364064897E1,-5.796390192E-1,1.474249860E1
3.497421625E0,7.115193722E0,-1.463223149E1,-1.395095369E0,1.633017058E1
3.507375625E0,1.061997502E1,-1.589546864E1,-2.147741658E0,1.923701087E1
3.517329625E0,1.314712876E1,-1.636278279E1,-2.743327643E0,2.116869155E1
3.527283625E0,1.327314211E1,-1.524490977E1,-4.090268852E0,2.062313930E1
3.537237625E0,1.181680066E1,-1.396918063E1,-4.231916481E0,1.877988026E1
3.547191625E0,1.000771307E1,-1.435594821E1,-3.567215531E0,1.785980394E1
3.557145625E0,7.413170756E0,-1.476810558E1,-2.601490563E0,1.672781505E1
3.567099625E0,5.463100362E0,-1.430991542E1,-1.775921016E0,1.541989107E1
3.577053625E0,4.826114044E0,-1.363103381E1,-2.144707246E0,1.461835246E1
3.587008625E0,5.002140378E0,-1.238175981E1,-2.886920056E0,1.366249215E1
3.596962625E0,5.225036824E0,-1.064603723E1,-3.702137693E0,1.242356398E1
3.606916625E0,5.947652106E0,-9.010933542E0,-4.745911295E0,1.179386124E1
3.616870625E0,6.545788938E0,-7.283432150E0,-5.407438377E0,1.118642599E1
3.626824625E0,6.503691325E0,-4.989433209E0,-5.154540453E0,9.683064178E0
3.636778625E0,5.768704503E0,-2.670529223E0,-4.322811449E0,7.687416783E0
3.646732625E0,4.304157076E0,-5.599492514E-1,-2.900503138E0,5.220366822E0
3.656686625E0,2.570324319E0,1.139982519E0,-1.073808264E0,3.009849072E0
3.666640625E0,6.771461642E-1,2.301046005E0,1.166014469E0,2.667007572E0
3.676594625E0,-1.215704547E0,3.302726671E0,3.171145023E0,4.737309549E0
3.686548625E0,-3.025482695E0,4.271015058E0,4.508543576E0,6.908116990E0
3.696502625E0,-4.644096653E0,5.272039667E0,5.020963150E0,8.635514283E0
3.706456625E0,-5.931906139E0,6.212841462E0,4.879108529E0,9.878897181E0
3.716409875E0,-6.679705964E0,6.951389823E0,4.306063854E0,1.055852632E1
3.726363875E0,-7.015894552E0,7.653073243E0,3.676366675E0,1.101399012E1
3.736317875E0,-7.183007975E0,7.912101388E0,2.998269753E0,1.109894470E1
3.746271875E0,-7.171242793E0,7.638790834E0,2.228013697E0,1.071176426E1
3.756225875E0,-7.150830163E0,7.227194799E0,1.279932117E0,1.024719195E1
3.766179875E0,-7.174430110E0,6.859998427E0,2.881950800E-1,9.930512687E0
3.776133875E0,-7.231907655E0,6.522918139E0,-3.983346958E-1,9.747185230E0
3.786087875E0,-7.098582952E0,6.391899578E0,-6.038803328E-1,9.571359966E0
3.796041875E0,-6.778887606E0,6.595352862E0,-4.280079266E-1,9.467586141E0
3.805995875E0,-6.236643723E0,6.848653659E0,-8.973831497E-2,9.263251850E0
3.815949875E0,-5.589286199E0,7.341549380E0,2.927502072E-1,9.231693789E0
3.825904875E0,-5.001659737E0,7.776909084E0,5.989583659E-1,9.265833268E0
3.835858875E0,-4.270356077E0,7.940246961E0,6.687470774E-1,9.040502501E0
3.845812875E0,-3.684960328E0,7.951845497E0,5.492489929E-1,8.781369705E0
3.855766875E0,-3.568674411E0,8.029533359E0,3.369985731E-1,8.793316272E0
3.865720875E0,-3.593126882E0,8.077318559E0,3.672661002E-1,8.848080034E0
3.875674875E0,-3.463598192E0,7.931296628E0,4.771306045E-1,8.667735128E0
3.885628875E0,-3.225020099E0,7.719712790E0,6.714053679E-1,8.393182076E0
3.895582875E0,-2.976094773E0,7.528655604E0,8.812537515E-1,8.143365611E0
3.905536875E0,-2.649523686E0,7.346528285E0,1.032018214E0,7.877595775E0
3.915490875E0,-2.366712576E0,6.966349339E0,1.101407122E0,7.439385000E0
3.925444875E0,-1.990831334E0,6.600108987E0,9.750793433E-1,6.962444094E0
3.935398875E0,-1.371100734E0,6.442361634E0,1.072096199E0,6.673329821E0
3.945352875E0,-7.275982797E-1,6.084520222E0,1.098688167E0,6.225584412E0
3.955306875E0,2.130930036E-1,4.983455016E0,8.588345034E-1,5.061405855E0
3.965260875E0,9.869690716E-1,3.284408514E0,5.099064410E-1,3.467196535E0
3.975214875E0,1.538517044E0,1.392322034E0,1.925757086E-1,2.083909965E0
3.985168875E0,2.074748819E0,-5.693504047E-1,-2.045297563E-1,2.161151306E0
3.995122875E0,2.306383928E0,-2.480998744E0,-7.805799007E-1,3.476214403E0
4.005076875E0,2.031927904E0,-3.825325078E0,-1.311856599E0,4.525793931E0
4.015030875E0,2.197731552E0,-4.458420659E0,-1.657774515E0,5.239823956E0
4.024984875E0,3.296294149E0,-4.868404616E0,-1.461101078E0,6.058195687E0
4.034938875E0,4.777305581E0,-5.420112217E0,-9.644901820E-1,7.289067593E0
4.044892875E0,6.269191080E0,-6.492281653E0,-8.148751362E-1,9.061815455E0
4.054846875E0,6.896336533E0,-8.180436546E0,-1.416616484E0,1.079285884E1
4.064800875E0,6.694305877E0,-1.045378546E1,-2.232664426E0,1.261269805E1
4.074755875E0,6.125792794E0,-1.324843879E1,-2.936957020E0,1.488865959E1
4.084709875E0,5.296407353E0,-1.621590074E1,-3.291708763E0,1.737362121E1
4.094663875E0,4.184143560E0,-1.761226261E1,-3.167994543E0,1.837756896E1
4.104617875E0,4.094204612E0,-1.777546074E1,-2.630607358E0,1.842958521E1
4.114571875E0,5.479117055E0,-1.771510461E1,-1.981002749E0,1.864859316E1
4.124525875E0,6.717295960E0,-1.547191154E1,-1.259163977E0,1.691412444E1
4.134479875E0,8.118876475E0,-1.285930425E1,-9.278372030E-1,1.523609999E1
4.144433875E0,9.037609125E0,-1.030776411E1,-8.190520947E-1,1.373314334E1
4.154387875E0,8.809047897E0,-7.933341399E0,-1.106279168E0,1.190634638E1
4.164341875E0,7.745748687E0,-5.618665534E0,-1.508975594E0,9.687261350E0
4.174295875E0,6.380308058E0,-3.414706698E0,-2.034722289E0,7.517223393E0
4.184249875E0,4.948060650E0,-1.431479083E0,-2.632888942E0,5.784854427E0
4.194203875E0,3.552661226E0,2.275338721E-1,-3.004308758E0,4.658223327E0
4.204157875E0,1.998408156E0,1.357136414E0,-2.927259997E0,3.795300449E0
4.214111875E0,9.301107466E-2,2.281446138E0,-2.257423876E0,3.210858156E0
4.224065875E0,-1.781265371E0,3.522849197E0,-1.116706946E0,4.102487927E0
4.234019875E0,-3.111373031E0,5.015394262E0,9.772568464E-2,5.902912167E0
4.243973875E0,-4.038395863E0,6.255695706E0,1.234428939E0,7.547594631E0
4.253927875E0,-4.779687152E0,7.076584557E0,2.228104913E0,8.825412725E0
4.263881875E0,-5.208017918E0,7.401728339E0,3.021432914E0,9.541388258E0
4.273835875E0,-5.431563404E0,7.224079403E0,3.488444180E0,9.688056928E0
4.283789875E0,-5.757828097E0,7.036558027E0,3.369496611E0,9.696351927E0
4.293743875E0,-5.970763226E0,6.796226354E0,2.989947996E0,9.527774933E0
4.303697875E0,-5.860889366E0,6.628200765E0,2.603224847E0,9.222789662E0
4.313651875E0,-5.788432424E0,6.653917989E0,2.038121860E0,9.051768626E0
4.323606875E0,-5.656155542E0,6.876678194E0,1.683642597E0,9.061757606E0
4.333560875E0,-5.350833237E0,7.174870405E0,1.726653692E0,9.115454713E0
4.343514875E0,-4.930471056E0,7.412470844E0,2.054632204E0,9.136508214E0
4.353468875E0,-4.594697621E0,7.584975985E0,2.482823660E0,9.209099861E0
4.363422875E0,-4.397599091E0,7.810052857E0,2.995415143E0,9.450307681E0
4.373376875E0,-4.246110013E0,7.924792185E0,3.211318903E0,9.546955039E0
4.383330875E0,-4.087709525E0,8.023618315E0,2.912871169E0,9.464282249E0
4.393284875E0,-3.991587732E0,8.255657467E0,2.358197422E0,9.468355080E0
4.403238875E0,-3.861685404E0,8.482163399E0,1.841221697E0,9.499989864E0
4.413192875E0,-3.801273726E0,8.604391841E0,1.606830210E0,9.542910678E0
4.423146875E0,-3.783130401E0,8.577143231E0,1.536939465E0,9.499560229E0
4.433100875E0,-3.604953461E0,8.368332728E0,1.433747657E0,9.223899091E0
4.443054875E0,-3.074454880E0,7.684704925E0,1.228968955E0,8.367635705E0
4.453008875E0,-2.361105680E0,6.450816708E0,8.728534953E-1,6.924574316E0
4.462962875E0,-1.692471893E0,4.640512310E0,3.131313352E-1,4.949430961E0
4.472916875E0,-1.446231608E0,2.878896507E0,-2.216889954E-1,3.229361698E0
4.482870875E0,-1.043155552E0,1.070834516E0,-8.030905847E-1,1.697001636E0
4.492824875E0,-1.538636327E-2,-7.321801579E-1,-1.346556462E0,1.532820547E0
4.502778875E0,1.789608763E0,-2.354501250E0,-1.734488815E0,3.428531335E0
4.512732875E0,4.060353327E0,-4.191399955E0,-2.009241292E0,6.171819285E0
4.522686875E0,5.770094971E0,-5.696555125E0,-2.203660043E0,8.402431425E0
4.532640875E0,7.332753999E0,-6.791243357E0,-2.458292252E0,1.029239857E1
4.542594875E0,9.399131359E0,-9.203820323E0,-2.499060209E0,1.339026814E1
4.552548875E0,1.048694619E1,-1.224339832E1,-2.014842925E0,1.624612061E1
4.562502875E0,1.035512539E1,-1.471294646E1,-1.376806448E0,1.804425148E1
4.572457875E0,9.234230522E0,-1.599200032E1,-3.258232284E-1,1.846946801E1
4.582411875E0,8.690451745E0,-1.779643821E1,8.881184558E-1,1.982488131E1
4.592365875E0,8.123433210E0,-1.917334289E1,1.788020074E0,2.089986269E1
4.602319875E0,7.077146475E0,-1.877343076E1,2.016314085E0,2.016415699E1
4.612273875E0,6.683686164E0,-1.777548179E1,1.484211613E0,1.904841982E1
4.622227875E0,6.604237706E0,-1.573512629E1,4.566522666E-1,1.707098961E1
4.632181875E0,6.451691451E0,-1.311113447E1,-1.179809147E0,1.466008593E1
4.642135875E0,6.066896714E0,-1.052177454E1,-3.049222391E0,1.252248907E1
4.652089875E0,5.111863965E0,-7.750394300E0,-4.424050140E0,1.028455078E1
4.662043875E0,3.966736481E0,-4.937035725E0,-4.937271953E0,8.030315958E0
4.671997875E0,3.097760713E0,-2.134328438E0,-4.651732532E0,5.982482333E0
4.681951875E0,2.330893117E0,7.650684071E-1,-3.823874384E0,4.543171546E0
4.691905875E0,1.413804120E0,3.409800884E0,-2.988846381E0,4.749609126E0
4.701859875E0,1.552804130E-1,5.520949790E0,-2.257645047E0,5.966737781E0
4.711814375E0,-1.346205629E0,6.931841996E0,-2.063261379E0,7.356612711E0
4.721768375E0,-2.835796680E0,7.740470991E0,-2.219718837E0,8.537200108E0
4.731722375E0,-4.110182714E0,8.251537519E0,-2.154413624E0,9.466940975E0
4.741676375E0,-5.008061269E0,8.605515091E0,-1.677438701E0,1.009699798E1
4.751630375E0,-5.725440955E0,8.891891833E0,-9.486383072E-1,1.061820743E1
4.761584375E0,-5.967816229E0,8.950927076E0,-2.355188298E-1,1.076054809E1
4.771538375E0,-5.919952092E0,8.375830028E0,2.026153779E-1,1.025872382E1
4.781492375E0,-6.049998261E0,7.290091544E0,2.189687245E-1,9.476067801E0
4.791446375E0,-6.725402539E0,6.238155228E0,-3.475731164E-2,9.173158019E0
4.801400375E0,-7.500384316E0,5.581955545E0,3.184145138E-2,9.349599268E0
4.811354375E0,-7.973714669E0,5.163392553E0,4.351673305E-1,9.509475216E0
4.821308375E0,-8.185111980E0,5.199380996E0,1.080529054E0,9.756903397E0
4.831263375E0,-8.027573372E0,5.512860752E0,1.841989729E0,9.910928013E0
4.841217375E0,-7.595230832E0,5.820658768E0,2.575461098E0,9.909621574E0
4.851171375E0,-7.038469482E0,6.237832462E0,3.289566928E0,9.963526336E0
4.861125375E0,-6.426458961E0,6.815881185E0,3.802377973E0,1.011007860E1
4.871079375E0,-5.693194145E0,7.136346610E0,3.946636677E0,9.945644452E0
4.881033375E0,-5.145708818E0,7.321896304E0,3.996508749E0,9.801049276E0
4.890987375E0,-4.820730513E0,7.599020997E0,3.879101336E0,9.799591316E0
4.900941375E0,-4.533040486E0,7.765221670E0,3.388544501E0,9.608816653E0
4.910895375E0,-4.346626573E0,7.644900005E0,2.891018955E0,9.257194459E0
4.920849375E0,-4.040003262E0,7.421090224E0,2.518911506E0,8.816979168E0
4.930803375E0,-3.382045906E0,7.331292195E0,2.074606147E0,8.336070442E0
4.940757375E0,-2.494760166E0,7.058379836E0,1.426528684E0,7.620993261E0
4.950711375E0,-1.862314212E0,6.542917956E0,5.989465253E-1,6.829108766E0
4.960665375E0,-1.254299678E0,5.537541264E0,-2.176204296E-1,5.681988172E0
4.970619375E0,-2.502362716E-1,3.958469687E0,-7.554368003E-1,4.037670766E0
4.980573375E0,1.294307497E0,1.564685088E0,-9.551999795E-1,2.244076274E0
4.990527375E0,2.392599953E0,-7.915732509E-1,-1.837997396E0,3.119191750E0
5.000481375E0,3.470896686E0,-3.577360450E0,-2.900756907E0,5.767063571E0
5.010435375E0,4.226558678E0,-6.060951265E0,-3.094502059E0,8.010922012E0
5.020389375E0,5.251914720E0,-7.520646088E0,-3.265576386E0,9.736873982E0
5.030343375E0,6.031536262E0,-8.215603455E0,-3.343059011E0,1.072621151E1
5.040297375E0,8.366839349E0,-9.876995058E0,-2.753246859E0,1.323402434E1
5.050251375E0,1.111961726E1,-1.236883746E1,-1.542500167E0,1.670369226E1
5.060205375E0,1.237998343E1,-1.448022961E1,-5.709724224E-1,1.905956581E1
5.070159375E0,1.227474992E1,-1.604967609E1,-8.923790295E-2,2.020568117E1
5.080113375E0,1.105983299E1,-1.705957677E1,5.697947931E-1,2.033897076E1
5.090068375E0,9.830087525E0,-1.770244773E1,1.552940955E0,2.030809942E1
5.100022375E0,8.725779453E0,-1.732064326E1,2.391821104E0,1.954135917E1
5.109976375E0,7.445444462E0,-1.549655872E1,2.896232332E0,1.743462467E1
5.119930375E0,6.324964162E0,-1.293017484E1,2.550792865E0,1.461852036E1
5.129884375E0,5.444277005E0,-1.028704392E1,1.204197811E0,1.170100496E1
5.139838375E0,4.468552129E0,-8.226232524E0,-4.679948052E-1,9.373253374E0
5.149792375E0,3.140344230E0,-6.606752009E0,-1.618660151E0,7.492062111E0
5.159746375E0,1.754866946E0,-4.960426342E0,-2.260137130E0,5.726570295E0
5.169700375E0,5.779937589E-1,-3.399291683E0,-2.574772296E0,4.303337439E0
5.179654375E0,-2.529680908E-1,-1.687455567E0,-2.515283893E0,3.039432876E0
5.189608375E0,-6.966302562E-1,1.766853154E-2,-2.275640438E0,2.379946489E0
5.199562375E0,-1.064085075E0,1.553829147E0,-1.973747524E0,2.728065497E0
5.209516375E0,-1.281174651E0,2.984628784E0,-1.312585309E0,3.503183931E0
5.219470375E0,-1.497640328E0,4.376830366E0,-3.534687178E-1,4.639451556E0
5.229424375E0,-1.654900609E0,5.812966172E0,6.440295812E-1,6.078161386E0
5.239378375E0,-1.707244298E0,7.252268829E0,1.601916064E0,7.620775639E0
5.249332375E0,-1.782475160E0,8.473735222E0,2.179267799E0,8.929200101E0
5.259286375E0,-2.312393112E0,9.322536927E0,2.438439785E0,9.909734872E0
5.269240375E0,-2.931583428E0,9.632288498E0,2.405329342E0,1.035184874E1
5.279194375E0,-3.661645140E0,9.679429920E0,2.233601296E0,1.058716126E1
5.289148375E0,-4.034350174E0,8.974209520E0,2.061736425E0,1.005301820E1
5.299102375E0,-4.819314317E0,8.234751917E0,1.613000046E0,9.676709088E0
5.309056375E0,-5.869267842E0,7.990214342E0,1.258912400E0,9.993832631E0
5.319010375E0,-6.407032172E0,7.572500365E0,1.119988550E0,9.982344283E0
5.328964375E0,-6.667743731E0,7.239154109E0,1.080775806E0,9.901122917E0
5.338919375E0,-6.810816327E0,7.312630806E0,1.277360366E0,1.007439516E1
5.348873375E0,-6.425729229E0,6.783572395E0,1.714759140E0,9.499855234E0
5.358827375E0,-6.004626206E0,6.469767534E0,2.386712977E0,9.143840913E0
5.368781375E0,-5.710978451E0,6.565679997E0,3.120823885E0,9.244618457E0
5.378735375E0,-5.663944618E0,6.819421674E0,3.493298539E0,9.528269270E0
5.388689375E0,-5.307197220E0,6.886803818E0,3.554966784E0,9.393199561E0
5.398643375E0,-4.609081187E0,6.729807247E0,3.618391532E0,8.923378970E0
5.408597375E0,-4.345067121E0,6.592763715E0,3.272198943E0,8.547012788E0
5.418551375E0,-4.227688944E0,6.838699944E0,2.524648794E0,8.427041134E0
5.428505375E0,-4.299705006E0,7.292586551E0,1.707445443E0,8.636240599E0
5.438459375E0,-4.292870781E0,7.407982521E0,8.664415848E-1,8.605676359E0
5.448413375E0,-4.117442032E0,7.045520055E0,7.105529152E-2,8.160743262E0
5.458367375E0,-3.903632745E0,6.683415438E0,-6.826331913E-1,7.769966447E0
5.468321375E0,-3.273760734E0,6.133914576E0,-1.118243741E0,7.042221697E0
5.478275375E0,-2.189087613E0,5.521831550E0,-1.143334143E0,6.048961994E0
5.488229375E0,-6.527708763E-1,4.647459971E0,-1.103273699E0,4.821017202E0
5.498183375E0,1.292853879E0,2.944841405E0,-1.243447831E0,3.448147990E0
5.508137375E0,3.408136182E0,2.308433962E-1,-1.575008347E0,3.761559810E0
5.518091375E0,4.104563540E0,-3.155949279E0,-2.040197622E0,5.565057416E0
5.528045375E0,3.078273112E0,-5.964523078E0,-2.049147370E0,7.017856214E0
5.537999375E0,2.821436504E0,-7.657292009E0,-1.928443297E0,8.385315641E0
5.547953375E0,4.859975855E0,-9.771949829E0,-2.136334618E0,1.112089449E1
5.557907375E0,7.350728340E0,-1.217626760E1,-2.524237735E0,1.444529252E1
5.567861375E0,9.734449881E0,-1.513136385E1,-3.253462710E0,1.828394668E1
5.577815375E0,1.003385714E1,-1.697708659E1,-3.707696056E0,2.006606011E1
5.587769375E0,8.827493523E0,-1.742601944E1,-3.321766959E0,1.981476548E1
5.597724375E0,8.315427706E0,-1.808320204E1,-2.184832009E0,2.002303735E1
5.607678375E0,7.833712445E0,-1.782842131E1,-6.545828553E-1,1.948456147E1
5.617632375E0,7.597225901E0,-1.741026938E1,9.153653113E-1,1.901770793E1
5.627586375E0,7.201792156E0,-1.674578711E1,1.979880084E0,1.833595161E1
5.637540375E0,6.739992512E0,-1.604409317E1,2.223615421E0,1.754379919E1
5.647494375E0,6.064554319E0,-1.507261922E1,1.544389987E0,1.632016573E1
5.657448375E0,5.174218673E0,-1.374656777E1,4.760895078E-1,1.469582681E1
5.667402375E0,4.141145475E0,-1.187280179E1,-4.148494256E-1,1.258112110E1
5.677356375E0,3.434100743E0,-9.381421312E0,-9.164022419E-1,1.003214368E1
5.687310375E0,2.891147593E0,-6.288499171E0,-8.841586483E-1,6.977513364E0
5.697264375E0,2.552768639E0,-3.116907420E0,-6.102690737E-1,4.074821215E0
5.707218375E0,2.227171113E0,-1.035547739E-1,-1.102270317E-1,2.232300328E0
5.717172167E0,1.691573176E0,2.703833209E0,4.615381269E-1,3.222600080E0
5.727126167E0,9.626773989E-1,5.206412857E0,9.526365602E-1,5.379683915E0
5.737080167E0,7.556532204E-2,7.481200771E0,1.326490134E0,7.598266326E0
5.747034167E0,-7.973789513E-1,9.193376611E0,1.478881291E0,9.345644792E0
5.756988167E0,-1.741071610E0,1.043783543E1,1.571704670E0,1.069813041E1
5.766942167E0,-2.679563171E0,1.102925439E1,1.553805320E0,1.145595139E1
5.776896167E0,-3.452560403E0,1.093365242E1,1.570558470E0,1.157288133E1
5.786850167E0,-4.415192193E0,1.032714412E1,1.339719898E0,1.131099807E1
5.796804167E0,-5.283024831E0,9.404443554E0,9.910891660E-1,1.083218204E1
5.806758167E0,-6.064400538E0,8.632245052E0,9.558175917E-1,1.059274260E1
5.816712167E0,-6.761828939E0,8.165104562E0,9.711092301E-1,1.064585911E1
5.826666167E0,-7.030223154E0,7.919311590E0,1.160900056E0,1.065303819E1
5.836620167E0,-6.983022675E0,7.923837919E0,1.620957083E0,1.068537856E1
5.846575167E0,-6.605612971E0,8.033991276E0,2.302205800E0,1.065266587E1
5.856529167E0,-6.098099211E0,7.976681546E0,3.070324992E0,1.049957895E1
5.866483167E0,-5.685614984E0,7.797625769E0,3.708841818E0,1.033850536E1
5.876437167E0,-5.345083085E0,7.779771881E0,4.207312275E0,1.033422664E1
5.886391167E0,-5.002000045E0,7.828610165E0,4.611348152E0,1.037167650E1
5.896345167E0,-4.725943639E0,7.943622558E0,4.852109596E0,1.043928399E1
5.906299167E0,-4.557297075E0,8.010905884E0,4.896134452E0,1.043626860E1
5.916253167E0,-4.388787922E0,8.030113987E0,4.665227028E0,1.027173468E1
5.926207167E0,-4.130982429E0,8.050258815E0,4.198355802E0,9.974862117E0
5.936161167E0,-3.610690749E0,8.243115190E0,3.814091992E0,9.774115481E0
5.946115167E0,-2.748139901E0,8.551123121E0,3.540583802E0,9.654517762E0
5.956069167E0,-1.601018516E0,8.398932377E0,3.232516229E0,9.140814326E0
5.966023167E0,-4.316648483E-1,7.961097547E0,3.043913119E0,8.534097244E0
5.975977167E0,1.475498092E0,6.981739211E0,2.623084623E0,7.602785672E0
5.985931167E0,3.230077940E-1,8.308036240E0,1.448522401E0,8.439550779E0
5.995885167E0,-1.784634537E-1,8.506459749E0,-3.898176415E-1,8.517256863E0
6.005839167E0,4.147418368E-1,6.236025673E0,-2.046095123E0,6.576209564E0
6.015793167E0,1.759416080E0,1.479733230E0,-2.931011571E0,3.725048215E0
6.025747167E0,2.632423503E0,-3.945117570E0,-3.461700186E0,5.871709659E0
6.035701167E0,1.850651940E0,-6.839867633E0,-3.465222548E0,7.887741701E0
6.045655167E0,1.172336333E0,-6.705486923E0,-3.697359349E0,7.746508472E0
6.055609167E0,3.905705582E0,-7.173815567E0,-3.903723961E0,9.053023067E0
6.065563167E0,7.520760108E0,-8.397442507E0,-3.311354238E0,1.174921019E1
6.075517167E0,1.019329434E1,-1.015642648E1,-2.792731937E0,1.465795347E1
6.085471167E0,1.236616529E1,-1.279039949E1,-2.179254935E0,1.792388114E1
6.095425167E0,1.300534899E1,-1.500866354E1,-1.935962816E0,1.995362212E1
6.105380167E0,1.250824444E1,-1.719515499E1,-1.950867369E0,2.135264428E1
6.115334167E0,1.138339685E1,-1.969169856E1,-1.327167095E0,2.278389977E1
6.125288167E0,1.007920113E1,-2.137051369E1,1.264789291E-1,2.362848171E1
6.135242167E0,9.173076248E0,-2.137180476E1,1.749407401E0,2.332294563E1
6.145196167E0,8.451293609E0,-1.990514298E1,3.120394700E0,2.184893461E1
6.155150167E0,7.602165629E0,-1.745354345E1,3.528597010E0,1.936156239E1
6.165104167E0,6.762215440E0,-1.442705387E1,2.632196631E0,1.614917645E1
6.175058167E0,5.662327278E0,-1.132957908E1,1.299880478E0,1.273228187E1
6.185012167E0,4.553852481E0,-8.191290733E0,-1.067410679E-1,9.372630897E0
6.194966167E0,3.834599932E0,-5.156650128E0,-1.655687059E0,6.636000062E0
6.204920167E0,2.812570370E0,-2.193050271E0,-2.864803548E0,4.574617027E0
6.214874167E0,1.801019019E0,7.439137655E-1,-3.659373497E0,4.145852336E0
6.224828167E0,1.372257898E0,3.374452711E0,-3.096350949E0,4.780942589E0
6.234782167E0,7.800963360E-1,5.026385273E0,-1.333064597E0,5.258341985E0
6.244736167E0,-9.402913338E-1,5.802700215E0,3.475982594E-1,5.888658772E0
6.254690167E0,-3.376458891E0,6.570799234E0,1.259209585E0,7.494096743E0
6.264644167E0,-5.249816154E0,7.132603807E0,1.406937296E0,8.967389769E0
6.274598167E0,-6.062627662E0,7.523022981E0,1.428005691E0,9.766807523E0
6.284552167E0,-6.355345709E0,7.965714508E0,1.144061537E0,1.025436022E1
6.294506167E0,-6.523221610E0,8.333559337E0,5.875409465E-1,1.059933185E1
6.304460167E0,-6.402437430E0,8.824952323E0,-1.456997502E-1,1.090377077E1
6.314414167E0,-6.658067758E0,9.052844045E0,-6.159527135E-1,1.125447686E1
6.324368167E0,-6.787688835E0,8.524039988E0,-4.175542744E-1,1.090441787E1
6.334322167E0,-6.842234586E0,7.979491133E0,4.162983656E-1,1.051958921E1
6.344276167E0,-7.752282951E0,8.145186607E0,9.575482944E-1,1.128533803E1
6.354230167E0,-7.996143419E0,7.789035625E0,1.291784424E0,1.123726357E1
6.364185167E0,-7.992478384E0,7.610481539E0,1.101580346E0,1.109110541E1
6.374139167E0,-7.991435825E0,7.718204209E0,1.052102449E0,1.115977788E1
6.384093167E0,-7.553434934E0,7.796642852E0,1.598228956E0,1.097252728E1
6.394047167E0,-6.846805939E0,8.278484412E0,1.671343564E0,1.087223275E1
6.404001167E0,-5.788218416E0,9.023957046E0,9.849131906E-1,1.076593364E1
6.413955167E0,-4.765634539E0,9.311075799E0,2.033639677E-1,1.046177624E1
6.423909167E0,-4.328178023E0,9.563124708E0,-5.428601789E-1,1.051100263E1
6.433863167E0,-4.208407166E0,9.802029660E0,-8.765001114E-1,1.070321114E1
6.443817167E0,-4.079048629E0,9.840732965E0,-7.132784486E-1,1.067648955E1
6.453771167E0,-3.919797957E0,9.876445420E0,-3.387843128E-1,1.063126356E1
6.463725167E0,-3.769473644E0,9.815662444E0,4.906851813E-2,1.051468347E1
6.473679167E0,-3.689013033E0,9.557118448E0,4.481435446E-1,1.025417782E1
6.483633167E0,-3.539559955E0,9.075689117E0,7.290039504E-1,9.768728903E0
6.493587167E0,-2.991335540E0,7.826391147E0,6.903995363E-1,8.406969622E0
6.503541167E0,-2.191092623E0,5.701772595E0,2.780983273E-1,6.114608433E0
6.513495167E0,-1.409399412E0,2.853335989E0,-3.538325608E-1,3.202050975E0
6.523449167E0,-4.912701952E-1,-9.624300617E-1,-1.200730412E0,1.615354930E0
6.533403167E0,4.577024996E-1,-5.563568975E0,-1.851076302E0,5.881264728E0
6.543357167E0,2.102781540E-1,-8.719575557E0,-1.582983803E0,8.864595452E0
6.553311167E0,7.460076535E-1,-1.006264883E1,-1.293846298E0,1.017287900E1
6.563265167E0,3.995147517E0,-1.166263415E1,-9.148636933E-1,1.236184511E1
6.573219167E0,7.516603323E0,-1.352140202E1,-1.289721818E-1,1.547075538E1
6.583173167E0,1.113497439E1,-1.631628807E1,3.368696420E-1,1.975657846E1
6.593127167E0,1.281486541E1,-1.855779247E1,-5.521234842E-1,2.255919496E1
6.603081167E0,1.262089690E1,-1.948553743E1,-1.802196941E0,2.328564195E1
6.613035167E0,1.277780576E1,-2.073302685E1,-2.267004100E0,2.445955908E1
6.622990167E0,1.219159199E1,-2.168133063E1,-1.855422099E0,2.494308730E1
6.632944167E0,1.085562249E1,-2.182776596E1,-1.199960918E0,2.440769986E1
6.642898167E0,9.051815520E0,-2.104349062E1,-9.764337046E-1,2.292852556E1
6.652852167E0,7.036074463E0,-1.882933950E1,-1.387041121E0,2.014880277E1
6.662806167E0,5.673643979E0,-1.566781198E1,-2.117973776E0,1.679751116E1
6.672760167E0,5.072837309E0,-1.196180577E1,-2.702608802E0,1.327111788E1
6.682714167E0,4.812432729E0,-7.989186986E0,-2.665682466E0,9.700127859E0
6.692668167E0,4.396969931E0,-4.172977132E0,-2.500325546E0,6.557340204E0
6.702622167E0,3.776245889E0,-7.031235892E-1,-2.471060232E0,4.567335598E0
6.712576500E0,2.775945750E0,2.285447972E0,-2.484260906E0,4.370434703E0
6.722530500E0,1.293066133E0,4.748068918E0,-2.333909111E0,5.446403420E0
6.732484500E0,-4.204820484E-1,6.578882425E0,-2.021397654E0,6.895255440E0
6.742438500E0,-2.148186339E0,7.908346891E0,-1.545061247E0,8.339296694E0
6.752392500E0,-3.744439960E0,8.892301138E0,-7.755958803E-1,9.679638377E0
6.762346500E0,-5.138734260E0,9.461643941E0,1.200502078E-1,1.076771600E1
6.772300500E0,-6.062147605E0,9.620076588E0,8.183659239E-1,1.140022938E1
6.782254500E0,-6.509040942E0,9.677716101E0,1.065900855E0,1.171161592E1
6.792208500E0,-6.822617762E0,9.540546854E0,9.760394561E-1,1.176957095E1
6.802162500E0,-7.041504187E0,9.329366475E0,5.598358154E-1,1.170184926E1
6.812116500E0,-6.972044528E0,8.905250382E0,1.464316754E-1,1.131080596E1
6.822070500E0,-6.903059662E0,8.415471227E0,-6.430987045E-2,1.088469221E1
6.832024500E0,-6.828580168E0,8.212226104E0,-2.795880517E-1,1.068402238E1
6.841978500E0,-6.722706388E0,7.930095609E0,-3.636324942E-1,1.040256825E1
6.851932500E0,-6.741558981E0,7.848111799E0,5.442244805E-2,1.034622821E1
6.861886500E0,-6.733198632E0,7.910560062E0,5.305834381E-1,1.040165579E1
6.871840500E0,-5.976923268E0,7.452264070E0,1.026930113E0,9.608040225E0
6.881794500E0,-5.429648441E0,7.335644277E0,1.798449168E0,9.301998633E0
6.891749500E0,-4.933068389E0,7.690349827E0,2.487416064E0,9.469101482E0
6.901703500E0,-4.581538462E0,8.001162084E0,2.814187710E0,9.639955489E0
6.911657500E0,-4.336144270E0,8.225653650E0,2.775337640E0,9.703917977E0
6.921611500E0,-4.235292079E0,8.310516629E0,2.473603771E0,9.649927526E0
6.931565500E0,-4.297643863E0,8.296321344E0,1.955223545E0,9.545762920E0
6.941519500E0,-4.392643576E0,8.436331168E0,1.378203786E0,9.610746425E0
6.951473500E0,-4.393480897E0,8.680650643E0,8.016672993E-1,9.762122742E0
6.961427500E0,-4.438567607E0,8.684416249E0,3.648941772E-1,9.759770272E0
6.971381500E0,-4.468968451E0,8.477238289E0,3.832392316E-1,9.590730959E0
6.981335500E0,-4.806819402E0,8.383023857E0,4.614764388E-1,9.674376583E0
6.991289500E0,-5.314574068E0,8.280730913E0,4.180339654E-1,9.848347799E0
7.001243500E0,-5.800443774E0,7.571226257E0,1.569870691E-1,9.539038733E0
7.011197500E0,-6.040524017E0,5.894347134E0,-1.502208173E-1,8.441198069E0
7.021151500E0,-5.746655238E0,3.543048404E0,-3.289748776E-1,6.759102225E0
7.031105500E0,-5.070254593E0,2.823170203E-1,-8.386382206E-1,5.146892131E0
7.041059500E0,-2.942933459E0,-4.995028410E0,-1.629601315E0,6.022189519E0
7.051013500E0,-1.356610749E0,-1.095910768E1,-2.433172760E0,1.130764182E1
7.060967500E0,-3.841082740E-1,-1.465800602E1,-2.967544974E0,1.496031426E1
7.070921500E0,2.359459105E0,-1.638692595E1,-2.903413882E0,1.680857523E1
7.080875500E0,5.362955099E0,-1.686857630E1,-1.603154358E0,1.777302050E1
7.090829500E0,8.926938289E0,-1.721785154E1,9.187881982E-1,1.941619970E1
7.100783500E0,1.193787428E1,-1.648314539E1,2.344934767E0,2.048671871E1
7.110737500E0,1.394013634E1,-1.493656036E1,2.102617818E0,2.053896877E1
7.120691500E0,1.485220375E1,-1.466069106E1,1.704750900E0,2.093871997E1
7.130645500E0,1.409205636E1,-1.620810757E1,7.647911029E-1,2.149124726E1
7.140600500E0,1.261181734E1,-1.835304168E1,-1.187613792E0,2.230028032E1
7.150554500E0,1.051247162E1,-1.977686442E1,-3.403536762E0,2.265437019E1
7.160508500E0,8.423956121E0,-1.988414680E1,-5.473389122E0,2.227779879E1
7.170462500E0,6.677426720E0,-1.816977474E1,-6.638353286E0,2.046451749E1
7.180416500E0,5.742138848E0,-1.501318227E1,-6.565549604E0,1.736301362E1
7.190370500E0,5.448566523E0,-1.115758206E1,-5.381883706E0,1.353304056E1
7.200324500E0,5.257915717E0,-7.230732365E0,-3.373446990E0,9.555590658E0
7.210278500E0,4.784748209E0,-3.512940506E0,-1.584476159E0,6.143706627E0
7.220232500E0,4.552072296E0,-5.353956234E-1,-3.049498379E-1,4.593583031E0
7.230186500E0,3.944039636E0,1.503006903E0,7.651315570E-1,4.289511009E0
7.240140500E0,2.785564713E0,2.944415143E0,1.159211746E0,4.215770769E0
7.250094500E0,1.465370715E0,4.039885148E0,8.869898701E-1,4.388021692E0
7.260048500E0,1.915606320E-1,5.148176343E0,5.234344129E-1,5.178262134E0
7.270002500E0,-8.993456215E-1,6.227171819E0,2.923690418E-1,6.298568969E0
7.279956500E0,-1.952415127E0,7.181051497E0,1.723209536E-1,7.443730244E0
7.289910500E0,-2.747593771E0,8.072310419E0,2.463667305E-1,8.530660209E0
7.299864500E0,-3.183959781E0,8.856591607E0,4.333172715E-1,9.421495563E0
7.309818500E0,-3.520016806E0,9.426728463E0,4.053280389E-1,1.007065135E1
7.319772500E0,-3.976490221E0,9.911950883E0,1.403285710E-1,1.068077417E1
7.329726500E0,-4.506015240E0,1.020885027E1,-1.799388523E-1,1.116051859E1
7.339680500E0,-5.096235527E0,1.033328370E1,-4.062703907E-1,1.152880845E1
7.349634500E0,-5.552519492E0,1.029184799E1,-6.110982089E-1,1.171008321E1
7.359588500E0,-5.829284581E0,1.000402699E1,-6.508440726E-1,1.159675440E1
7.369542500E0,-5.982055954E0,9.579103394E0,-4.497491169E-1,1.130249926E1
7.379496500E0,-6.025591398E0,9.016176156E0,-8.580335811E-2,1.084465520E1
7.389450500E0,-5.957513435E0,8.406889268E0,4.340354557E-1,1.031291134E1
7.399404500E0,-5.847721437E0,7.852755657E0,9.886285114E-1,9.840681061E0
7.409358500E0,-5.753701133E0,7.419824887E0,1.462944266E0,9.502583017E0
7.419313500E0,-5.689215115E0,7.135843749E0,1.884254865E0,9.318682902E0
7.429267500E0,-5.707466614E0,7.102203548E0,2.239286105E0,9.382476893E0
7.439221500E0,-5.630321374E0,7.274860132E0,2.450471016E0,9.519922106E0
7.449175500E0,-5.572349739E0,7.508186840E0,2.463628421E0,9.669199359E0
7.459129500E0,-5.557988977E0,7.725650638E0,2.350932841E0,9.803254790E0
7.469083500E0,-5.443506927E0,7.952681649E0,2.265350507E0,9.899935656E0
7.479037500E0,-5.428061507E0,8.053632658E0,2.257397271E0,9.970992586E0
7.488991500E0,-5.417759882E0,8.153536431E0,2.303794781E0,1.005682598E1
7.498945500E0,-5.376018364E0,8.137004013E0,2.331151564E0,1.002729651E1
7.508899500E0,-5.302428231E0,7.915885121E0,2.204152525E0,9.779328748E0
7.518853500E0,-5.092375780E0,7.326901520E0,1.971157207E0,9.137901165E0
7.528807500E0,-4.602495468E0,6.297850038E0,1.589607821E0,7.960699257E0
7.538761500E0,-3.934574456E0,4.527072233E0,1.038938101E0,6.087253201E0
7.548715500E0,-2.788761678E0,1.779052200E0,4.367824776E-1,3.336614655E0
7.558669500E0,-1.038622205E0,-2.138404532E0,-2.903366227E-1,2.394954150E0
7.568623500E0,-1.449571538E-1,-6.258532190E0,-8.692024939E-1,6.320265084E0
7.578577500E0,-8.195802444E-1,-8.645826380E0,-1.286845865E0,8.779407603E0
7.588531500E0,7.588919932E-1,-1.075041003E1,-2.009774559E0,1.096295702E1
7.598485500E0,4.836323283E0,-1.297418567E1,-2.383816412E0,1.404998567E1
7.608439500E0,7.993153152E0,-1.452903048E1,-2.281777675E0,1.673886894E1
7.618393500E0,1.100906746E1,-1.651815033E1,-1.749550073E0,1.992761356E1
7.628347500E0,1.212711357E1,-1.688521046E1,-1.023373836E0,2.081404598E1
7.638301500E0,1.270787540E1,-1.612615533E1,-1.908823550E-1,2.053239925E1
7.648255500E0,1.268951514E1,-1.595227551E1,1.618881176E0,2.044797459E1
7.658209500E0,1.181394605E1,-1.658976703E1,3.223374692E0,2.061988933E1
7.668163500E0,1.054887990E1,-1.757830315E1,3.598660687E0,2.081408099E1
7.678118500E0,9.240477102E0,-1.830407710E1,2.764687521E0,2.068983211E1
7.688072500E0,7.632446020E0,-1.823311529E1,1.089489473E0,1.979615399E1
7.698026500E0,6.149324328E0,-1.711581295E1,-5.116862603E-1,1.819414921E1
7.707980500E0,5.167041800E0,-1.451013227E1,-1.372446764E0,1.546369522E1
7.717934500E0,4.713794294E0,-1.093823195E1,-1.716298127E0,1.203372154E1
7.727888500E0,4.748372388E0,-7.348597614E0,-1.760252817E0,8.924540168E0
7.737842500E0,5.001567936E0,-4.203348155E0,-1.403011329E0,6.682234530E0
7.747796500E0,4.975411586E0,-1.499956995E0,-7.935887861E-1,5.256840743E0
7.757750500E0,4.454632832E0,7.838917637E-1,-3.116565943E-1,4.533803018E0
7.767704500E0,3.485762063E0,2.792799180E0,-1.936961813E-1,4.470769803E0
7.777658500E0,2.207926757E0,4.411993182E0,-3.957513960E-1,4.949469019E0
7.787612500E0,7.750291389E-1,5.891145199E0,-4.438073225E-1,5.958458430E0
7.797566500E0,-8.402314407E-1,7.368529603E0,-4.092479391E-1,7.427563615E0
7.807520500E0,-2.676251308E0,8.727967481E0,-4.497445122E-1,9.140131703E0
7.817474500E0,-4.108675302E0,9.864079728E0,-1.698113286E-1,1.068691338E1
7.827428500E0,-5.036351268E0,1.092893020E1,9.689077534E-2,1.203394106E1
7.837382500E0,-5.277807945E0,1.182266074E1,-2.973905575E-1,1.295063724E1
7.847336500E0,-5.103602434E0,1.182812438E1,-1.449732921E0,1.296352613E1
7.857290500E0,-5.119078844E0,1.152238517E1,-2.406790123E0,1.283600276E1
7.867244500E0,-5.013724297E0,1.144430847E1,-2.688384866E0,1.278033806E1
7.877198500E0,-4.569328891E0,1.142798538E1,-2.394992634E0,1.253848500E1
7.887152500E0,-3.907733397E0,1.109182662E1,-1.700203081E0,1.188232673E1
7.897106500E0,-3.214208597E0,1.041263977E1,-8.685595194E-1,1.093199888E1
7.907060500E0,-2.645061675E0,9.614238728E0,-1.084073782E-2,9.971462035E0
7.917014500E0,-2.353857472E0,8.973907219E0,8.175764036E-1,9.313435829E0
7.926968500E0,-2.367855706E0,8.525481327E0,1.513093350E0,8.976637677E0
7.936922500E0,-2.674994742E0,8.263251831E0,1.864854681E0,8.883389593E0
7.946877500E0,-3.063462115E0,8.144087330E0,1.894585580E0,8.905077938E0
7.956831500E0,-3.262476777E0,8.166506724E0,1.850656764E0,8.986685555E0
7.966785500E0,-3.383375562E0,8.352320128E0,1.865740242E0,9.202688106E0
7.976739500E0,-3.436003427E0,8.579294422E0,1.876397231E0,9.430338217E0
7.986693500E0,-3.463904001E0,8.689479353E0,1.987345955E0,9.563222590E0
7.996647500E0,-3.566454223E0,8.806480384E0,2.178484418E0,9.747793948E0
8.006601500E0,-3.915497915E0,8.705397813E0,2.088099182E0,9.771142881E0
8.016555500E0,-4.422470807E0,8.421828904E0,1.932172505E0,9.706633851E0
8.026509500E0,-4.867279612E0,8.060907764E0,1.714182605E0,9.571158070E0
8.036463500E0,-4.718845119E0,7.325821540E0,1.407725354E0,8.827052235E0
8.046417500E0,-3.840595082E0,6.092662470E0,1.140536835E0,7.291881158E0
8.056371500E0,-2.536610443E0,4.263508403E0,4.778685232E-1,4.983999876E0
8.066325500E0,-6.025123036E-1,1.324024217E0,-5.962173374E-1,1.572112056E0
8.076279500E0,1.576784731E0,-3.386032537E0,-1.793554025E0,4.143465032E0
8.086233500E0,1.754876887E0,-7.903025925E0,-2.418024817E0,8.448920385E0
8.096187500E0,-1.136312807E0,-9.167820770E0,-2.604940420E0,9.598221661E0
8.106141500E0,-5.455487287E-1,-9.927893901E0,-3.335123169E0,1.048731363E1
8.116095500E0,2.943832176E0,-1.186864793E1,-3.593945493E0,1.274548531E1
8.126049500E0,7.123052965E0,-1.518235157E1,-3.060118092E0,1.704717002E1
8.136003500E0,1.022120193E1,-1.802681617E1,-2.344425913E0,2.085510496E1
8.145957500E0,1.135736973E1,-1.861198212E1,-1.675192055E0,2.186783012E1
8.155911500E0,1.222197880E1,-1.847773473E1,-6.762094402E-1,2.216440176E1
8.165865500E0,1.258807531E1,-1.871254020E1,9.801251981E-1,2.257386644E1
8.175819500E0,1.214916927E1,-1.931259550E1,2.235541402E0,2.292545101E1
8.185773500E0,1.068194849E1,-1.960693381E1,2.446349899E0,2.246153390E1
8.195727500E0,8.510652203E0,-1.914963126E1,1.648405229E0,2.102039053E1
8.205681500E0,6.310414535E0,-1.801166954E1,-1.474316955E-2,1.908511956E1
8.215636500E0,3.941552523E0,-1.598304122E1,-1.961296609E0,1.657830291E1
8.225590500E0,1.875499683E0,-1.308351924E1,-3.358036069E0,1.363716910E1
8.235544500E0,4.315508276E-1,-9.477945394E0,-3.626688731E0,1.015729079E1
8.245498500E0,4.589538038E-2,-5.949817330E0,-2.949250206E0,6.640821442E0
8.255452500E0,1.137786305E-1,-2.686403244E0,-2.026396000E0,3.366896006E0
8.265406500E0,1.748843729E-2,1.638717270E-1,-1.473004839E0,1.482195347E0
8.275360500E0,-2.719352889E-1,2.611099877E0,-1.155547807E0,2.868289055E0
8.285314500E0,-7.210049593E-1,4.652688552E0,-1.138744079E0,4.843975329E0
8.295268500E0,-1.359473546E0,6.326316038E0,-1.020763639E0,6.550755784E0
8.305222500E0,-2.286358969E0,7.606120101E0,-5.012595785E-1,7.958125501E0
8.315176500E0,-3.130061901E0,8.410136227E0,4.272572172E-1,8.983887109E0
8.325130500E0,-3.890306940E0,8.863323507E0,1.554357297E0,9.803520708E0
8.335084500E0,-4.706660106E0,9.407558366E0,2.206418467E0,1.074816664E1
8.345038500E0,-5.191769090E0,9.844510267E0,1.750246038E0,1.126641957E1
8.354992500E0,-5.363071459E0,9.719595029E0,5.362037086E-1,1.111398117E1
8.364946500E0,-5.631244065E0,9.556516185E0,-6.048136946E-1,1.110872229E1
8.374900500E0,-5.941237126E0,9.546496981E0,-1.599916170E0,1.135753648E1
8.384854500E0,-6.081769692E0,9.583284153E0,-2.170596378E0,1.155589661E1
8.394808500E0,-6.138215788E0,9.609171531E0,-2.368598303E0,1.164577728E1
8.404762500E0,-5.852505628E0,9.456500731E0,-2.274694358E0,1.135127581E1
8.414716500E0,-5.326232831E0,9.283952320E0,-1.707251315E0,1.083859926E1
8.424670500E0,-4.990126104E0,9.176288708E0,-1.077002159E0,1.050074124E1
8.434624500E0,-4.904991814E0,8.977821345E0,-8.418295578E-1,1.026493535E1
8.444578500E0,-4.964059802E0,8.808817517E0,-8.036576915E-1,1.014312681E1
8.454532500E0,-5.007881175E0,8.785640323E0,-8.861559840E-1,1.015143449E1
8.464486500E0,-4.797487831E0,8.875137806E0,-8.725145761E-1,1.012646247E1
8.474440500E0,-4.407270970E0,8.997833440E0,-5.194362330E-1,1.003268947E1
8.484394500E0,-4.005887098E0,8.966361387E0,1.309400623E-1,9.821400779E0
8.494349500E0,-3.504016485E0,8.756390212E0,7.568611090E-1,9.461783120E0
8.504303500E0,-3.308813038E0,8.558432141E0,1.329821585E0,9.271646557E0
8.514257500E0,-3.233169363E0,8.342359396E0,1.867118723E0,9.139719730E0
8.524211500E0,-3.204857730E0,8.222952236E0,2.317955568E0,9.124745178E0
8.534165500E0,-3.109163952E0,8.076078950E0,2.678551018E0,9.058950670E0
8.544119500E0,-3.027867774E0,8.087179304E0,2.790027015E0,9.074949206E0
8.554073500E0,-2.480916883E0,7.520656613E0,2.561766919E0,8.323333119E0
8.564027500E0,-1.931637046E0,6.252514236E0,1.977437117E0,6.836330412E0
8.573981500E0,-1.162974941E0,4.194963248E0,1.340560727E0,4.554923756E0
8.583935500E0,7.552614570E-2,8.720011175E-1,5.420813298E-1,1.029535000E0
8.593889500E0,1.817845552E0,-3.692969259E0,-5.751683112E-1,4.156128365E0
8.603843500E0,2.496314941E0,-8.381352723E0,-1.324090144E0,8.844878544E0
8.613797500E0,8.837698084E-1,-1.079891502E1,-1.484424452E0,1.093623019E1
8.623751500E0,1.920206909E0,-1.267135603E1,-1.805323155E0,1.294255191E1
8.633705500E0,4.956339138E0,-1.370748615E1,-1.719094120E0,1.467704871E1
8.643659500E0,9.640355317E0,-1.567726108E1,-1.723293882E0,1.848466141E1
8.653613500E0,1.298832073E1,-1.812306134E1,-2.029251780E0,2.238882959E1
8.663567500E0,1.294610617E1,-1.855490862E1,-2.357564753E0,2.274740447E1
8.673521500E0,1.250668440E1,-1.825684095E1,-2.070653429E0,2.222649325E1
8.683475500E0,1.215509016E1,-1.908598315E1,-7.176719733E-1,2.263925844E1
8.693429500E0,1.023252916E1,-1.942430539E1,5.187662883E-1,2.196081536E1
8.703383500E0,8.080979501E0,-1.908054758E1,6.612734587E-1,2.073178256E1
8.713337500E0,6.799594350E0,-1.839827107E1,-6.935821027E-3,1.961455862E1
8.723291750E0,5.949029710E0,-1.687327980E1,-1.284877546E0,1.793737540E1
8.733245750E0,5.104499981E0,-1.436154517E1,-2.434519812E0,1.543492100E1
8.743199750E0,4.259759168E0,-1.132539248E1,-2.920162647E0,1.244738578E1
8.753154750E0,3.645240777E0,-7.998656552E0,-2.893491157E0,9.254111412E0
8.763108750E0,3.421994083E0,-4.621849751E0,-2.439912114E0,6.246976049E0
8.773062750E0,2.973426688E0,-1.422672592E0,-2.025751491E0,3.868970493E0
8.783016750E0,2.200253456E0,1.290159482E0,-1.749315015E0,3.092851400E0
8.792970750E0,1.319037711E0,3.544495005E0,-1.165064882E0,3.957357894E0
8.802924750E0,2.167521912E-1,5.510960407E0,-3.927482660E-1,5.529187763E0
8.812878750E0,-1.034095291E0,7.015670604E0,2.785647158E-1,7.096941974E0
8.822832750E0,-2.380790332E0,7.985941197E0,9.837870900E-1,8.391141546E0
8.832786750E0,-3.762677425E0,8.560485683E0,1.636873058E0,9.493103283E0
8.842740750E0,-5.068931953E0,8.876950443E0,1.887236799E0,1.039499798E1
8.852694750E0,-6.092781168E0,9.040885320E0,1.658654083E0,1.102772520E1
8.862648750E0,-6.710023777E0,9.176974586E0,1.146861257E0,1.142613550E1
8.872602750E0,-7.147421236E0,9.064018074E0,4.288395468E-1,1.155101542E1
8.882556750E0,-7.593480760E0,8.935871665E0,-1.222043952E-1,1.172713462E1
8.892510750E0,-7.969540341E0,8.952822744E0,-2.954364181E-1,1.198974107E1
8.902464750E0,-8.056480252E0,8.933764914E0,-1.864888302E-1,1.203136766E1
8.912418750E0,-7.660851209E0,8.838528389E0,1.416335964E-1,1.169736233E1
8.922372750E0,-7.077709562E0,8.673667313E0,5.891818944E-1,1.121042428E1
8.932326750E0,-6.608795026E0,8.492889531E0,8.873806833E-1,1.079781407E1
8.942280750E0,-6.219883264E0,8.222548778E0,9.303854196E-1,1.035195022E1
8.952234750E0,-6.012812893E0,8.053098807E0,9.268232958E-1,1.009283512E1
8.962188750E0,-5.922476919E0,8.024311795E0,9.948978961E-1,1.002273089E1
8.972142750E0,-5.840416510E0,8.045519062E0,1.110989539E0,1.000375628E1
8.982096750E0,-5.691111367E0,8.139982585E0,1.312974733E0,1.001858112E1
8.992050750E0,-5.414199513E0,8.196667832E0,1.499031966E0,9.937103036E0
9.002004750E0,-5.105560666E0,8.261405280E0,1.667451657E0,9.853829811E0
9.011958750E0,-4.746173251E0,8.398739419E0,1.788928878E0,9.811485661E0
9.021912750E0,-4.403480220E0,8.527930725E0,1.837257138E0,9.771988247E0
9.031866750E0,-4.129054018E0,8.539923365E0,1.803276483E0,9.655629665E0
9.041821750E0,-3.933372268E0,8.410450222E0,1.692860002E0,9.437842197E0
9.051775750E0,-3.900168269E0,8.124151248E0,1.568784425E0,9.147361948E0
9.061729750E0,-3.822288035E0,7.621864314E0,1.387522201E0,8.638745239E0
9.071683750E0,-3.516806100E0,6.647043418E0,1.147979244E0,7.607165549E0
9.081637750E0,-2.718731915E0,5.123184759E0,8.330270863E-1,5.859390704E0
9.091591750E0,-1.176149887E0,2.540846166E0,4.046926658E-1,2.828958103E0
9.101545750E0,1.516307564E0,-1.756118835E0,-5.789622040E-1,2.391304921E0
9.111499750E0,3.968224012E0,-7.292628651E0,-1.646882176E0,8.464127560E0
9.121453750E0,3.389362527E0,-1.137143813E1,-1.814627244E0,1.200376006E1
9.131407750E0,2.095718688E0,-1.384454372E1,-2.501766300E0,1.422400303E1
9.141361750E0,3.169632933E0,-1.594745974E1,-3.088390549E0,1.655011182E1
9.151315750E0,5.506052254E0,-1.743660524E1,-2.119904819E0,1.840776494E1
9.161269750E0,8.094324017E0,-1.778998873E1,-4.283974242E-1,1.954956022E1
9.171223750E0,9.234633980E0,-1.527804243E1,3.092464451E-1,1.785476627E1
9.181177750E0,1.153850010E1,-1.353026055E1,3.046528725E-1,1.778476169E1
9.191131750E0,1.301165930E1,-1.350470354E1,1.141916851E0,1.878787560E1
9.201085750E0,1.245020849E1,-1.489305941E1,1.476659349E0,1.946770230E1
9.211039750E0,1.131581357E1,-1.736711225E1,5.421596825E-1,2.073543252E1
9.220993750E0,9.575461164E0,-1.931112200E1,-1.551289701E-1,2.155534631E1
9.230947750E0,6.873797271E0,-1.972931019E1,-8.722946477E-1,2.091065918E1
9.240901750E0,4.717480963E0,-1.830339181E1,-1.820599591E0,1.898903265E1
9.250855750E0,3.769671280E0,-1.496147183E1,-2.196504075E0,1.558462997E1
9.260809750E0,4.032464447E0,-1.078767551E1,-1.928965892E0,1.167714099E1
9.270763750E0,4.779111786E0,-6.861483620E0,-1.193613108E0,8.446572037E0
9.280717750E0,5.029802971E0,-3.398373671E0,-6.059142137E-1,6.100409295E0
9.290671750E0,4.810208448E0,-7.292115265E-1,-1.806123054E-1,4.868518827E0
9.300626750E0,4.055936925E0,1.379762215E0,-1.625759840E-2,4.284230668E0
9.310580750E0,2.771137585E0,3.185770079E0,-1.895328176E-1,4.226612970E0
9.320534750E0,1.361579129E0,4.698951137E0,-3.054854429E-1,4.901771197E0
9.330488750E0,1.231780297E-1,5.758352593E0,1.756571556E-1,5.762347859E0
9.340442750E0,-1.036126029E0,6.524226161E0,1.095309718E0,6.696177083E0
9.350396750E0,-2.143392207E0,7.324683087E0,1.867349249E0,7.856978153E0
9.360350750E0,-3.087617548E0,8.110230782E0,2.401681849E0,9.004293485E0
9.370304750E0,-3.861355036E0,8.716297023E0,2.604572046E0,9.882696598E0
9.380258750E0,-4.505122370E0,9.192953272E0,2.159196646E0,1.046272659E1
9.390212750E0,-4.849271357E0,9.518053200E0,1.029839687E0,1.073169787E1
9.400166750E0,-5.110821991E0,9.851035759E0,-1.883984029E-1,1.109950003E1
9.410120750E0,-5.295892214E0,1.028352623E1,-1.372071372E0,1.164817436E1
9.420074750E0,-5.467040216E0,1.063131628E1,-2.436436529E0,1.220039498E1
9.430028750E0,-5.613545712E0,1.079578326E1,-3.274623783E0,1.260095205E1
9.439982750E0,-5.465627528E0,1.075346579E1,-3.852918089E0,1.266313897E1
9.449936750E0,-5.121983156E0,1.060031668E1,-3.976071560E0,1.242620498E1
9.459890750E0,-4.835678920E0,1.037376514E1,-3.640085286E0,1.201037113E1
9.469844750E0,-4.629832078E0,9.964516182E0,-3.025471001E0,1.139650835E1
9.479798750E0,-4.570670827E0,9.578238006E0,-2.263240832E0,1.085154064E1
9.489752750E0,-4.441684173E0,9.316961607E0,-1.399303025E0,1.041596759E1
9.499706750E0,-4.228397919E0,9.193676573E0,-4.622130052E-1,1.012998908E1
9.509660750E0,-3.989485658E0,9.151169654E0,4.346984204E-1,9.992440371E0
9.519614750E0,-3.660930026E0,9.091564892E0,1.182242686E0,9.872013908E0
9.529568750E0,-3.332688974E0,8.993707645E0,1.654966682E0,9.733062607E0
9.539522750E0,-3.114138764E0,8.880925380E0,1.787676258E0,9.579377968E0
9.549476750E0,-2.931579335E0,8.745056553E0,1.569053543E0,9.355859156E0
9.559430750E0,-2.951697558E0,8.669625717E0,1.257398118E0,9.244240292E0
9.569384750E0,-2.953894357E0,8.708191028E0,1.166836442E0,9.269282072E0
9.579338750E0,-2.797710257E0,8.786184699E0,1.252224501E0,9.305497861E0
9.589292750E0,-2.454322869E0,8.514875647E0,1.185884258E0,8.940532954E0
9.599247750E0,-2.067279586E0,7.598225775E0,8.211735376E-1,7.917133686E0
9.609201750E0,-1.506376361E0,5.892147412E0,2.099606502E-1,6.085281780E0
9.619155750E0,-6.086752689E-1,3.078480104E0,-6.174098396E-1,3.198237052E0
9.629109750E0,4.081257123E-1,-9.208376473E-1,-1.477772659E0,1.788384914E0
9.639063750E0,8.228900608E-1,-5.137468922E0,-2.228286177E0,5.660034829E0
9.649017750E0,3.124646795E-1,-8.859138654E0,-3.208350856E0,9.427379651E0
9.658971750E0,2.139703199E0,-1.375917671E1,-4.509021878E0,1.463641185E1
9.668925750E0,3.399839860E0,-1.732276579E1,-4.177317520E0,1.814075819E1
9.678879750E0,4.522624548E0,-1.872865045E1,-2.798997813E0,1.946922877E1
9.688833750E0,6.939212412E0,-1.873541918E1,-6.722905632E-1,1.999051214E1
9.698787750E0,9.520362266E0,-1.687736818E1,4.534199989E-1,1.938268413E1
9.708741750E0,1.181861213E1,-1.472123664E1,6.751910014E-1,1.889048130E1
9.718695667E0,1.364437481E1,-1.383654473E1,1.566864491E0,1.949548661E1
9.728649667E0,1.386065630E1,-1.505835786E1,1.871561583E0,2.055175606E1
9.738603667E0,1.221139300E1,-1.728896304E1,3.294403160E-1,2.116919679E1
9.748557667E0,9.842405269E0,-1.870014878E1,-1.593200204E0,2.119213988E1
9.758511667E0,6.875477761E0,-1.897905161E1,-3.077340481E0,2.041927077E1
9.768465667E0,4.324389612E0,-1.787200996E1,-4.451008143E0,1.891878852E1
9.778419667E0,3.193965536E0,-1.509193140E1,-5.014694935E0,1.622081917E1
9.788373667E0,3.236700204E0,-1.120242553E1,-4.521433178E0,1.250655524E1
9.798327667E0,3.271951606E0,-7.173673480E0,-3.523127525E0,8.635953107E0
9.808281667E0,3.115595597E0,-3.507374541E0,-2.451412418E0,5.293206490E0
9.818235667E0,2.851953999E0,-3.304881370E-1,-1.433609955E0,3.209065522E0
9.828189667E0,2.407516785E0,2.280773124E0,-7.371761651E-1,3.397277117E0
9.838143667E0,1.866911293E0,4.214708710E0,-3.346129091E-1,4.621806258E0
9.848097667E0,1.380762966E0,5.788144156E0,-1.201183279E-1,5.951768439E0
9.858052667E0,8.738962001E-1,7.103646641E0,-8.512142658E-2,7.157704648E0
9.868006667E0,3.171281263E-1,8.128974032E0,-1.281159302E-1,8.136166342E0
9.877960667E0,-2.824594000E-1,8.961443878E0,-1.885538475E-1,8.967876686E0
9.887914667E0,-8.115789145E-1,9.640003315E0,-4.023900323E-1,9.682470861E0
9.897868667E0,-1.400418089E0,1.011650403E1,-7.939850812E-1,1.024379016E1
9.907822667E0,-2.063540876E0,1.047615808E1,-1.032779448E0,1.072728868E1
9.917776667E0,-2.871611461E0,1.075607949E1,-1.095331938E0,1.118656116E1
9.927730667E0,-3.817531325E0,1.091427006E1,-1.007919572E0,1.160649552E1
9.937684667E0,-4.730498327E0,1.113492176E1,-7.419776794E-1,1.212083446E1
9.947638667E0,-5.441657453E0,1.112311156E1,-3.367854421E-1,1.238744005E1
9.957592667E0,-5.709895547E0,1.055214966E1,1.668735413E-1,1.199910898E1
9.967546667E0,-5.596867114E0,9.709923150E0,7.966701226E-1,1.123575598E1
9.977500667E0,-5.482831206E0,8.935969314E0,1.492104331E0,1.058958738E1
9.987454667E0,-5.542913686E0,8.324721855E0,2.110023024E0,1.022140319E1
9.997408667E0,-5.578685782E0,7.934738883E0,2.633874782E0,1.005082646E1
1.000736267E1,-5.451502410E0,7.735037173E0,3.119249815E0,9.963904757E0
1.001731667E1,-5.261945618E0,7.718247478E0,3.620845023E0,1.001847965E1
1.002727067E1,-5.084148163E0,7.859699226E0,4.053175285E0,1.020057177E1
1.003722467E1,-4.896223329E0,8.071316977E0,4.370094373E0,1.040273452E1
1.004717867E1,-4.693584270E0,8.262696345E0,4.447000462E0,1.049179190E1
1.005713267E1,-4.548005557E0,8.367704737E0,4.157578490E0,1.039174172E1
1.006708667E1,-4.534245305E0,8.321983019E0,3.563923548E0,1.012503496E1
1.007704067E1,-4.463177953E0,8.109424451E0,2.851338580E0,9.685703592E0
1.008699467E1,-4.475874890E0,7.808509192E0,2.122228210E0,9.247168453E0
1.009694867E1,-4.199268845E0,7.392451147E0,1.318730732E0,8.603559934E0
1.010690267E1,-3.398162878E0,6.552273501E0,4.341579549E-1,7.393800924E0
1.011685667E1,-2.333833682E0,5.359568977E0,-3.596799226E-1,5.856716565E0
1.012681067E1,-7.453039411E-1,3.136214342E0,-1.297660875E0,3.474944907E0
1.013676567E1,1.449839340E0,-7.659712172E-1,-2.438589474E0,2.938616110E0
1.014671967E1,3.073029622E0,-5.370383987E0,-3.337113562E0,7.029997308E0
1.015667367E1,3.132279165E0,-8.700498431E0,-3.693338803E0,9.957439291E0
1.016662767E1,3.272655610E0,-1.140991047E1,-4.231582021E0,1.260169108E1
1.017658167E1,4.835201202E0,-1.449048212E1,-4.751033456E0,1.599767363E1
1.018653567E1,6.648023996E0,-1.755510023E1,-4.529290667E0,1.931041794E1
1.019648967E1,9.438495399E0,-2.107487379E1,-3.243188567E0,2.331852853E1
1.020644367E1,9.965823619E0,-2.167722354E1,-9.374020784E-1,2.387673310E1
1.021639767E1,1.078991499E1,-2.076996489E1,1.030477326E0,2.342809404E1
1.022635167E1,1.116517877E1,-1.982948703E1,3.312777450E0,2.299661425E1
1.023630567E1,1.059135407E1,-1.892735521E1,5.203997372E0,2.230477852E1
1.024625967E1,9.666190070E0,-1.857151939E1,5.632762002E0,2.168097255E1
1.025621367E1,8.274191971E0,-1.828893398E1,4.893696163E0,2.066145254E1
1.026616767E1,6.356075442E0,-1.733767853E1,3.654795127E0,1.882424818E1
1.027612167E1,4.365486767E0,-1.575435311E1,2.091027613E0,1.648118664E1
1.028607567E1,2.774147732E0,-1.359503133E1,1.347631180E-1,1.387583992E1
1.029602967E1,1.566641566E0,-1.117389112E1,-1.356909542E0,1.136448028E1
1.030598367E1,8.150726259E-1,-8.073710827E0,-1.848211458E0,8.322561835E0
1.031593767E1,6.339972210E-1,-4.479325624E0,-1.692786619E0,4.830304034E0
1.032589167E1,8.438157839E-1,-7.421034676E-1,-1.263199725E0,1.690685121E0
1.033584567E1,7.661203212E-1,2.829054256E0,-9.475401270E-1,3.080311774E0
1.034579967E1,-5.554328620E-2,5.762488913E0,-1.084031682E0,5.863828802E0
1.035575367E1,-1.188897986E0,7.914633817E0,-1.481765138E0,8.139443151E0
1.036570767E1,-2.404905419E0,9.357071167E0,-2.097969282E0,9.886345432E0
1.037566167E1,-3.294921223E0,1.027012792E1,-2.529103203E0,1.107828491E1
1.038561567E1,-3.715630143E0,1.065386665E1,-2.492784977E0,1.155529139E1
1.039556967E1,-3.843996407E0,1.084438180E1,-2.131849219E0,1.170135489E1
1.040552367E1,-3.849345440E0,1.090261189E1,-1.677408296E0,1.168324034E1
1.041547867E1,-3.798377016E0,1.092525114E1,-1.372069033E0,1.164780468E1
1.042543267E1,-3.826973116E0,1.099555806E1,-1.376754992E0,1.172362890E1
1.043538667E1,-3.882968977E0,1.095868551E1,-1.612528760E0,1.173756726E1
1.044534067E1,-4.014731011E0,1.084185113E1,-1.904387852E0,1.171710263E1
1.045529467E1,-4.046732823E0,1.062355820E1,-2.052441691E0,1.155199343E1
1.046524867E1,-4.058944733E0,1.035615567E1,-2.044688283E0,1.130954211E1
1.047520267E1,-4.122415966E0,1.000169044E1,-1.884366986E0,1.098084532E1
1.048515667E1,-4.234824886E0,9.619900002E0,-1.554277629E0,1.062506456E1
1.049511067E1,-4.254336460E0,9.206612368E0,-1.098363281E0,1.020134755E1
1.050506467E1,-4.399453828E0,9.034356903E0,-6.763228031E-1,1.007135597E1
1.051501867E1,-4.680285071E0,9.143681710E0,-2.900300825E-1,1.027599635E1
1.052497267E1,-4.833770973E0,9.169401857E0,9.994294882E-2,1.036596647E1
1.053492667E1,-4.873814460E0,9.023250117E0,4.793512309E-1,1.026659085E1
1.054488067E1,-4.964172653E0,8.834430660E0,8.557117979E-1,1.016968131E1
1.055483467E1,-5.047484951E0,8.727851706E0,1.177989494E0,1.015086986E1
1.056478867E1,-5.212494546E0,8.771458486E0,1.451807367E0,1.030613060E1
1.057474267E1,-5.325722369E0,8.976694002E0,1.557561425E0,1.055321522E1
1.058469667E1,-5.154887778E0,9.284897230E0,1.637704678E0,1.074542978E1
1.059465067E1,-4.839112112E0,9.676243188E0,1.900059597E0,1.098439415E1
1.060460467E1,-4.172949358E0,9.766101444E0,2.242085460E0,1.085436276E1
1.061455867E1,-2.733427722E0,8.839555745E0,2.529010817E0,9.591937687E0
1.062451267E1,-9.245304564E-1,6.659734215E0,2.558701808E0,7.194009405E0
1.063446667E1,8.282893798E-1,3.414983856E0,2.203324559E0,4.147627894E0
1.064442067E1,3.207636327E0,-2.100095329E0,1.279080763E0,4.041704936E0
1.065437467E1,3.663877607E0,-8.575145237E0,1.688463919E-1,9.326608390E0
1.066432867E1,-7.779515773E-1,-1.183858388E1,-9.917634961E-1,1.190549755E1
1.067428267E1,-2.401162908E0,-1.430038797E1,-2.757262727E0,1.476039218E1
1.068423767E1,1.251107976E0,-1.727374157E1,-3.733986307E0,1.771694310E1
1.069419167E1,5.331377796E0,-1.930259793E1,-3.094213207E0,2.026297193E1
1.070414567E1,6.499553250E0,-1.828821945E1,-1.607266266E0,1.947527838E1
1.071409967E1,7.579110058E0,-1.552567669E1,-5.947173804E-2,1.727695236E1
1.072405367E1,9.645435963E0,-1.359294738E1,1.614070964E0,1.674538380E1
1.073400767E1,1.072452558E1,-1.359169140E1,2.418187369E0,1.748133731E1
1.074396167E1,9.854302014E0,-1.550274976E1,1.444323077E0,1.842630151E1
1.075391567E1,7.884546969E0,-1.856907291E1,-1.290583405E0,2.021489934E1
1.076386967E1,4.939728953E0,-2.137725203E1,-4.943923745E0,2.249066936E1
1.077382367E1,2.641710928E0,-2.207973651E1,-7.588817021E0,2.349645814E1
1.078377767E1,1.307440051E0,-2.037176950E1,-8.648837696E0,2.217026805E1
1.079373167E1,8.252704623E-1,-1.700506201E1,-8.989001221E0,1.925241149E1
1.080368567E1,1.571880087E0,-1.291537437E1,-8.179712076E0,1.536832430E1
1.081363967E1,2.572885692E0,-8.391225747E0,-6.238438818E0,1.076803275E1
1.082359367E1,3.193125291E0,-4.139013580E0,-4.078340824E0,6.630259906E0
1.083354767E1,3.291483937E0,-6.297281688E-1,-2.188022542E0,4.002232717E0
1.084350167E1,2.622303727E0,2.079321926E0,-7.285510835E-1,3.425031853E0
1.085345567E1,1.417116567E0,4.046256859E0,1.520907569E-1,4.289935377E0
1.086340967E1,3.665321285E-1,5.708491046E0,3.949269386E-1,5.733862844E0
1.087336367E1,-6.169204277E-1,7.251504014E0,8.315339997E-2,7.278173930E0
1.088331767E1,-1.388239801E0,8.685514941E0,-3.424059319E-1,8.802421335E0
1.089327167E1,-1.953375240E0,1.009476174E1,-5.519698486E-1,1.029682282E1
1.090322567E1,-2.449506810E0,1.135180552E1,-3.690493548E-1,1.161894012E1
1.091317967E1,-2.815406855E0,1.225868060E1,4.457113221E-2,1.257790731E1
1.092313367E1,-2.893833512E0,1.276943372E1,2.896317409E-1,1.309643449E1
1.093308767E1,-3.087765774E0,1.272514574E1,-3.301688790E-2,1.309445385E1
1.094304167E1,-3.398475120E0,1.231822397E1,-5.293458018E-1,1.278938942E1
1.095299567E1,-3.625646172E0,1.173296679E1,-6.382706586E-1,1.229695936E1
1.096295067E1,-3.727741481E0,1.104915130E1,-3.191410303E-1,1.166540406E1
1.097290467E1,-3.646426592E0,1.034230479E1,3.480980502E-1,1.097182152E1
1.098285867E1,-3.456737069E0,9.680578313E0,1.253650345E0,1.035539796E1
1.099281267E1,-3.297878745E0,9.052838783E0,2.216662351E0,9.886530545E0
1.100276667E1,-3.266677125E0,8.548505323E0,3.063945680E0,9.650693541E0
1.101272067E1,-3.347788823E0,8.217659336E0,3.753566294E0,9.634670461E0
1.102267467E1,-3.555647692E0,7.895808706E0,4.320107404E0,9.677280280E0
1.103262867E1,-3.710732515E0,7.623523754E0,4.731477151E0,9.709507004E0
1.104258267E1,-3.875372567E0,7.536209037E0,4.880322411E0,9.779085132E0
1.105253667E1,-3.887162892E0,7.644083734E0,4.812399108E0,9.833678693E0
1.106249067E1,-3.686150821E0,7.849511622E0,4.830011798E0,9.926306189E0
1.107244467E1,-3.459687282E0,8.141637347E0,4.896415118E0,1.011091370E1
1.108239867E1,-3.169898104E0,8.392657145E0,4.878908847E0,1.021218387E1
1.109235267E1,-3.053660720E0,8.411127915E0,4.744801786E0,1.012842834E1
1.110230667E1,-3.217304990E0,8.051967371E0,4.279593216E0,9.669547458E0
1.111226067E1,-3.357036195E0,7.514826354E0,3.658187681E0,9.006922019E0
1.112221467E1,-3.275331296E0,6.875386544E0,3.117119089E0,8.228922569E0
1.113216867E1,-2.847891061E0,5.714682078E0,2.434836731E0,6.833484079E0
1.114212267E1,-2.008429114E0,3.672968273E0,1.628814133E0,4.491939328E0
1.115207667E1,-2.877753961E-1,4.612108290E-1,6.602848408E-1,8.552813446E-1
1.116203067E1,1.825744556E0,-4.094382952E0,-6.634250879E-1,4.531826099E0
1.117198467E1,2.092034358E0,-8.415193484E0,-1.596185793E0,8.817023206E0
1.118193867E1,2.733164012E-1,-1.087027094E1,-1.765346034E0,1.101607638E1
1.119189267E1,7.166172087E-1,-1.327537575E1,-2.101279975E0,1.345973696E1
1.120184667E1,2.743994225E0,-1.540437737E1,-2.300224179E0,1.581503644E1
1.121180067E1,5.532201587E0,-1.708845851E1,-2.010913596E0,1.807386074E1
1.122175467E1,7.289592776E0,-1.738709569E1,-1.152152914E0,1.888853398E1
1.123170867E1,8.484602857E0,-1.655495387E1,-7.583794847E-1,1.861800534E1
1.124166267E1,1.005911828E1,-1.623450424E1,-4.592952812E-1,1.910382005E1
1.125161767E1,1.041978039E1,-1.630967604E1,1.946305664E-1,1.935497965E1
1.126157167E1,1.022213398E1,-1.665932550E1,3.397021794E-1,1.954841546E1
1.127152567E1,9.747430699E0,-1.708500748E1,-2.111862266E-1,1.967115872E1
1.128147967E1,8.725602867E0,-1.674917850E1,-8.802363360E-1,1.890624081E1
1.129143367E1,7.795026097E0,-1.552706131E1,-1.588614672E0,1.744636814E1
1.130138767E1,7.315566108E0,-1.367158542E1,-2.201545690E0,1.566130770E1
1.131134167E1,7.072358190E0,-1.135497471E1,-2.623317050E0,1.363214926E1
1.132129567E1,6.842300075E0,-8.841040937E0,-2.672990316E0,1.149460536E1
1.133124967E1,6.347900450E0,-6.505775272E0,-2.621738302E0,9.460151359E0
1.134120367E1,5.433293011E0,-4.530546649E0,-2.620284684E0,7.544031926E0
1.135115767E1,4.110316615E0,-2.490132680E0,-2.658949982E0,5.492310848E0
1.136111167E1,2.099538090E0,-4.637029123E-1,-3.103263527E0,3.775357612E0
1.137106567E1,-3.180891162E-1,1.335523351E0,-3.789961703E0,4.030956836E0
1.138101967E1,-2.299174311E0,2.948568420E0,-4.008002036E0,5.481271619E0
1.139097367E1,-3.653138611E0,4.480398588E0,-3.149297487E0,6.583119920E0
1.140092767E1,-4.557232171E0,5.906503496E0,-1.619365325E0,7.633969653E0
1.141088167E1,-5.178656709E0,7.424477516E0,-2.241493575E-1,9.054921018E0
1.142083567E1,-5.436305496E0,8.837370055E0,9.038577716E-1,1.041486850E1
1.143078967E1,-5.333112665E0,9.754357896E0,1.601475330E0,1.123184365E1
1.144074367E1,-4.902640648E0,1.047967927E1,1.924312970E0,1.172870595E1
1.145069767E1,-4.174445953E0,1.121188632E1,1.924833372E0,1.211764736E1
1.146065167E1,-3.546195960E0,1.204152787E1,1.455227111E0,1.263691360E1
1.147060567E1,-3.098478751E0,1.260158939E1,6.704300523E-1,1.299423342E1
1.148055967E1,-2.610681801E0,1.250955188E1,-2.275980453E-1,1.278109340E1
1.149051367E1,-2.411106976E0,1.201189301E1,-9.275343172E-1,1.228655080E1
1.150046767E1,-2.538898458E0,1.139025915E1,-1.351869242E0,1.174783211E1
1.151042167E1,-2.584378102E0,1.063629577E1,-1.539596440E0,1.105351325E1
1.152037567E1,-2.715501913E0,9.807454707E0,-1.527476477E0,1.029044717E1
1.153032967E1,-2.925931510E0,9.069517381E0,-1.237509398E0,9.609820510E0
1.154028467E1,-3.179962040E0,8.440471582E0,-7.378472062E-1,9.049758980E0
1.155023867E1,-3.393478382E0,7.858934995E0,-3.940884478E-2,8.560380122E0
1.156019267E1,-3.685353261E0,7.516051345E0,8.306414223E-1,8.412064054E0
1.157014667E1,-4.029088265E0,7.548247284E0,1.719912876E0,8.727410246E0
1.158010067E1,-4.270584118E0,7.579915220E0,2.453345507E0,9.039463901E0
1.159005467E1,-4.529902285E0,7.654539140E0,2.805343212E0,9.326410601E0
1.160000867E1,-4.713704832E0,7.648373836E0,2.892636294E0,9.438431030E0
1.160996267E1,-4.892232605E0,7.543944318E0,2.851330394E0,9.432662442E0
1.161991667E1,-5.123996937E0,7.385819235E0,2.725969891E0,9.393432931E0
1.162987067E1,-5.244922035E0,7.194615283E0,2.570369343E0,9.267065057E0
1.163982467E1,-5.039904621E0,6.758499534E0,2.253697007E0,8.726803810E0
1.164977867E1,-4.496603562E0,5.667238355E0,1.583706957E0,7.405751946E0
1.165973267E1,-3.554263363E0,3.906219553E0,7.945654173E-1,5.340662267E0
1.166968667E1,-2.172477427E0,1.043485919E0,1.222537310E-1,2.413186070E0
1.167964067E1,-4.146652383E-1,-3.422344331E0,-6.441491568E-1,3.507038083E0
1.168959467E1,3.369127652E-1,-7.804112086E0,-1.104940448E0,7.889142479E0
1.169954867E1,-1.055833192E0,-9.869489572E0,-1.258693715E0,1.000529450E1
1.170950267E1,-4.864298701E-2,-1.149573941E1,-2.243267913E0,1.171267013E1
1.171945775E1,2.244124238E0,-1.278678708E1,-3.186446017E0,1.336755235E1
1.172941175E1,5.187628677E0,-1.442025823E1,-3.377938821E0,1.569285855E1
1.173936575E1,8.070833412E0,-1.628448624E1,-2.776856747E0,1.838569491E1
1.174931975E1,8.992517737E0,-1.679180353E1,-2.559840846E0,1.921933470E1
1.175927375E1,9.571789112E0,-1.735920564E1,-2.964871627E0,2.004374294E1
1.176922775E1,1.007538992E1,-1.900283808E1,-2.654081590E0,2.167176703E1
1.177918175E1,9.453685881E0,-2.029971309E1,-1.992588422E0,2.248156883E1
1.178913575E1,8.232514772E0,-2.062747058E1,-1.386724495E0,2.225286154E1
1.179909075E1,7.017058733E0,-1.950535481E1,-7.999129884E-1,2.074458581E1
1.180904475E1,6.186727213E0,-1.688042510E1,-8.519323039E-1,1.799861478E1
1.181899875E1,5.854189042E0,-1.422382921E1,-1.309583640E0,1.543709351E1
1.182895275E1,5.336619240E0,-1.116570268E1,-1.900672823E0,1.252058219E1
1.183890675E1,4.699750744E0,-7.688278159E0,-2.603924174E0,9.379642808E0
1.184886075E1,3.883333258E0,-4.010011724E0,-3.103227274E0,6.386743359E0
1.185881475E1,3.142760884E0,-5.206986469E-1,-3.032362529E0,4.398101359E0
1.186876875E1,2.386366822E0,2.327478928E0,-2.934995863E0,4.441408052E0
1.187872275E1,1.323445050E0,4.466671665E0,-3.036142169E0,5.560649407E0
1.188867675E1,2.818126979E-1,6.313966134E0,-2.697229656E0,6.871727188E0
1.189863075E1,-6.066965711E-1,7.595916710E0,-1.780931202E0,7.825455088E0
1.190858475E1,-1.351447366E0,8.334677909E0,-5.611420834E-1,8.462159669E0
1.191853875E1,-1.888526987E0,8.944395736E0,6.958174932E-1,9.168037481E0
1.192849275E1,-2.152260094E0,9.288843516E0,1.524055710E0,9.655961018E0
1.193844675E1,-2.369570695E0,9.356377687E0,1.993752895E0,9.855542568E0
1.194840075E1,-2.777146184E0,9.228181577E0,2.314165110E0,9.910965458E0
1.195835475E1,-3.548603259E0,9.076170343E0,2.449843025E0,1.004844187E1
1.196830875E1,-4.372073656E0,9.103619512E0,2.473335676E0,1.039751440E1
1.197826275E1,-4.811410051E0,9.285784838E0,2.515437383E0,1.075652788E1
1.198821675E1,-4.901456587E0,9.462069619E0,2.361835413E0,1.091482041E1
1.199817075E1,-5.122814630E0,9.350362072E0,1.882887786E0,1.082671543E1
1.200812475E1,-5.459128933E0,8.922347056E0,1.364615149E0,1.054858001E1
1.201807875E1,-6.058769084E0,8.551148264E0,9.494007111E-1,1.052293596E1
1.202803275E1,-6.367617261E0,8.285467157E0,8.700443467E-1,1.048582342E1
1.203798675E1,-6.446495615E0,8.121683723E0,1.276964948E0,1.044747298E1
1.204794075E1,-6.368225956E0,8.197631453E0,2.041806483E0,1.057943462E1
1.205789475E1,-5.964980915E0,8.418553294E0,2.907323331E0,1.071940137E1
1.206784875E1,-5.610464230E0,8.590658485E0,3.406566789E0,1.081117105E1
1.207780275E1,-5.399843429E0,8.499981619E0,3.481846182E0,1.065510438E1
1.208775675E1,-5.292354648E0,8.426002647E0,3.399763846E0,1.051498609E1
1.209771175E1,-5.230569459E0,8.615605631E0,3.420046668E0,1.064350677E1
1.210766575E1,-5.261331076E0,8.908652292E0,3.736100661E0,1.100018811E1
1.211761975E1,-5.295271239E0,8.964762758E0,3.984464654E0,1.114822082E1
1.212757375E1,-5.333541266E0,8.552579078E0,4.015670951E0,1.084983339E1
1.213752775E1,-5.312300670E0,7.525380578E0,3.532409687E0,9.865587132E0
1.214748175E1,-4.919311645E0,5.900378537E0,2.620803916E0,8.116816316E0
1.215743575E1,-4.109666405E0,3.860192025E0,1.663695552E0,5.878632776E0
1.216738975E1,-2.173587229E0,9.251511383E-1,4.208011602E-1,2.399470709E0
1.217734375E1,6.004190004E-1,-3.390152485E0,-1.220275169E0,3.652767216E0
1.218729775E1,2.165634431E0,-8.256349193E0,-2.626961035E0,8.930744580E0
1.219725175E1,1.972606148E0,-1.208133221E1,-3.244899755E0,1.266408849E1
1.220720575E1,2.621772215E0,-1.534486675E1,-3.698111300E0,1.600045788E1
1.221715975E1,3.461108447E0,-1.783371304E1,-3.628294376E0,1.852525607E1
1.222711375E1,5.916036211E0,-2.037062111E1,-2.403448731E0,2.134802695E1
1.223706775E1,7.828309618E0,-2.097987525E1,-6.017623982E-1,2.240088648E1
1.224702175E1,9.621486937E0,-1.938303223E1,-2.527619764E-1,2.164113763E1
1.225697575E1,1.234976385E1,-1.820892419E1,-4.048213045E-1,2.200557810E1
1.226692975E1,1.400896976E1,-1.790873282E1,3.414550285E-1,2.273962481E1
1.227688375E1,1.413495855E1,-1.804310183E1,1.049236948E0,2.294453039E1
1.228683775E1,1.287080456E1,-1.807351320E1,9.593525259E-1,2.220877859E1
1.229679175E1,1.105086687E1,-1.760163822E1,2.725388677E-1,2.078493695E1
1.230674575E1,8.914869052E0,-1.623686651E1,-4.964226155E-1,1.852989908E1
1.231669975E1,6.691931908E0,-1.419128361E1,-1.712045886E0,1.578307904E1
1.232665375E1,4.571861320E0,-1.147368254E1,-3.216829319E0,1.276304422E1
1.233660775E1,3.145023172E0,-7.782206662E0,-4.068954581E0,9.327931317E0
1.234656175E1,2.520702508E0,-3.755840861E0,-3.929595551E0,5.991828010E0
1.235651675E1,2.111379871E0,-7.442336082E-2,-3.209064217E0,3.842077165E0
1.236646975E1,1.588823563E0,3.047142536E0,-2.255664010E0,4.110651783E0
1.237642475E1,1.055963877E0,5.669249797E0,-1.152103724E0,5.880713899E0
1.238637875E1,2.573342067E-1,7.939972726E0,-5.373251315E-1,7.962292765E0
1.239633275E1,-8.138704383E-1,9.667703329E0,-3.482168949E-1,9.708147494E0
1.240628675E1,-1.996036525E0,1.073903837E1,-2.275748757E-1,1.092533282E1
1.241624075E1,-3.329374187E0,1.128818079E1,-1.852667622E-1,1.177039005E1
1.242619475E1,-4.280876972E0,1.133202088E1,-4.918350363E-1,1.212363421E1
1.243614875E1,-4.917873815E0,1.097469402E1,-1.046375467E0,1.207163176E1
1.244610275E1,-5.614741468E0,1.061042418E1,-1.554847147E0,1.210470870E1
1.245605675E1,-6.176379980E0,1.047984299E1,-1.916298630E0,1.231450280E1
1.246601075E1,-6.348274087E0,1.040557868E1,-2.079868641E0,1.236537525E1
1.247596475E1,-6.201931143E0,1.016027862E1,-1.938623300E0,1.206040928E1
1.248591875E1,-5.987034273E0,9.894728494E0,-1.608336307E0,1.167634262E1
1.249587275E1,-5.711752623E0,9.386426529E0,-9.175637182E-1,1.102592600E1
1.250582675E1,-5.667572231E0,8.832637904E0,-1.464738484E-1,1.049563347E1
1.251578075E1,-5.675145544E0,8.388092809E0,4.652863383E-1,1.013823798E1
1.252573475E1,-5.653788005E0,8.221343082E0,1.302055643E0,1.006236303E1
1.253568875E1,-5.612876206E0,8.319402643E0,2.396367753E0,1.031791733E1
1.254564275E1,-5.450002599E0,8.408214832E0,3.393345065E0,1.057900731E1
1.255559675E1,-5.264527164E0,8.397048404E0,4.199018877E0,1.076370883E1
1.256555075E1,-5.333451803E0,8.358058001E0,4.729004656E0,1.098482256E1
1.257550475E1,-5.606510927E0,8.264727083E0,4.843048750E0,1.109927023E1
1.258545875E1,-5.717527333E0,8.172558593E0,4.671960682E0,1.101399334E1
1.259541275E1,-5.682927019E0,8.235290446E0,4.397506120E0,1.092948893E1
1.260536675E1,-5.444979841E0,8.575645174E0,3.997557739E0,1.091649960E1
1.261532075E1,-5.027438942E0,8.940758184E0,3.217808143E0,1.075019016E1
1.262527475E1,-4.543791177E0,9.072212947E0,2.254775233E0,1.039399333E1
1.263522875E1,-3.862629145E0,8.942235190E0,1.333406074E0,9.831655296E0
1.264518275E1,-2.961629931E0,8.429615641E0,4.770626307E-1,8.947472294E0
1.265513775E1,-1.650691198E0,7.478800489E0,-4.172245646E-1,7.670157399E0
1.266509175E1,4.388920069E-3,5.810956483E0,-1.428230370E0,5.983901445E0
1.267504575E1,1.570421499E0,2.846003580E0,-2.808749800E0,4.295932437E0
1.268499975E1,3.393210579E0,-2.049576555E0,-4.390200609E0,5.915108070E0
1.269495375E1,3.850300583E0,-7.460526186E0,-5.197574791E0,9.874160686E0
1.270490775E1,1.960540126E0,-1.022035058E1,-4.591728405E0,1.137467596E1
1.271486175E1,3.733521161E0,-1.350986313E1,-4.388020767E0,1.468707963E1
1.272481413E1,6.143526814E0,-1.691692576E1,-3.708005959E0,1.837592466E1
1.273476812E1,8.134482694E0,-1.918475198E1,-2.679095979E0,2.100957097E1
1.274472212E1,1.010528907E1,-2.044166478E1,-2.450312118E0,2.293430957E1
1.275467612E1,1.078006009E1,-1.946482659E1,-3.381902064E0,2.250614208E1
1.276463012E1,1.169800045E1,-1.886891346E1,-3.826302148E0,2.252819783E1
1.277458412E1,1.310412015E1,-1.924143723E1,-2.832897631E0,2.345157096E1
1.278453812E1,1.342765361E1,-1.941253026E1,-1.640465587E0,2.366092433E1
1.279449213E1,1.233546623E1,-1.872772074E1,-8.576216447E-1,2.244163020E1
1.280444612E1,1.095079996E1,-1.769473642E1,-8.159204721E-1,2.082521171E1
1.281440012E1,9.360999327E0,-1.633825138E1,-1.575731063E0,1.889575865E1
1.282435412E1,7.679387468E0,-1.422329126E1,-2.493106574E0,1.635513946E1
1.283430812E1,6.121911997E0,-1.115987417E1,-2.880957066E0,1.305069008E1
1.284426212E1,5.047969685E0,-7.647303210E0,-2.742926524E0,9.564877953E0
1.285421612E1,4.471134844E0,-4.420129582E0,-2.068920314E0,6.618838538E0
1.286417013E1,3.619965017E0,-1.471851184E0,-1.163895219E0,4.077394354E0
1.287412412E1,2.437781389E0,1.132961183E0,-1.409914991E-1,2.691887394E0
1.288407812E1,9.905311954E-1,3.226175508E0,4.927799463E-1,3.410600026E0
1.289403212E1,-7.962130165E-1,5.008478175E0,7.021172833E-1,5.119743888E0
1.290398612E1,-2.742907228E0,6.574595246E0,7.491394222E-1,7.163103558E0
1.291394012E1,-4.406519018E0,7.797111214E0,8.614808802E-1,8.997472004E0
1.292389513E1,-5.611636596E0,8.726583445E0,1.068800928E0,1.043005558E1
1.293384912E1,-6.280608938E0,9.384030340E0,1.259597840E0,1.136189512E1
1.294380312E1,-6.574392348E0,9.718979318E0,1.261992860E0,1.180143295E1
1.295375712E1,-6.694426330E0,9.698059149E0,8.687722850E-1,1.181619484E1
1.296371112E1,-6.926533309E0,9.398310410E0,1.625596301E-1,1.167610928E1
1.297366512E1,-7.284044938E0,9.078123897E0,-4.163942599E-1,1.164658870E1
1.298361912E1,-7.632534313E0,8.953001668E0,-8.213209605E-1,1.179348918E1
1.299357313E1,-7.419093400E0,8.827832662E0,-1.018172153E0,1.157627967E1
1.300352712E1,-6.834834934E0,8.589110727E0,-8.784973741E-1,1.101179138E1
1.301348112E1,-6.264764737E0,8.393893247E0,-4.871093166E-1,1.048532291E1
1.302343512E1,-5.985751394E0,8.358526363E0,-1.297906824E-1,1.028158686E1
1.303338912E1,-6.060856540E0,8.251411804E0,1.562446189E-1,1.023934525E1
1.304334312E1,-6.149090440E0,7.955429841E0,5.138545175E-1,1.006798012E1
1.305329712E1,-6.119842082E0,7.604463000E0,9.639415669E-1,9.808644554E0
1.306325113E1,-6.068920435E0,7.326471165E0,1.274024091E0,9.598547409E0
1.307320512E1,-6.075827751E0,7.260890549E0,1.287038823E0,9.554720475E0
1.308315912E1,-5.950633602E0,7.358220377E0,1.122636242E0,9.529625360E0
1.309311312E1,-5.563338595E0,7.657839308E0,1.199482616E0,9.541069004E0
1.310306712E1,-4.914775960E0,7.974009368E0,1.246197191E0,9.449489700E0
1.311302112E1,-4.653461553E0,8.198592151E0,1.253102753E0,9.510093806E0
1.312297512E1,-4.483304070E0,8.328959332E0,1.276769797E0,9.544722104E0
1.313292913E1,-4.515423995E0,8.205032274E0,1.308299153E0,9.456387003E0
1.314288312E1,-4.789363124E0,7.962661092E0,1.291083927E0,9.381304201E0
1.315283712E1,-4.775798169E0,7.605369319E0,1.032468596E0,9.039683735E0
1.316279112E1,-4.465969999E0,6.642125325E0,2.592994559E-1,8.008117948E0
1.317274512E1,-3.984241875E0,5.103219441E0,-5.606216812E-1,6.498563584E0
1.318269912E1,-3.345559280E0,3.299332362E0,-1.165050848E0,4.841043732E0
1.319265312E1,-2.158899608E0,5.710700709E-1,-1.661531936E0,2.783461319E0
1.320260713E1,-2.538621300E-1,-3.178064033E0,-2.201794782E0,3.874588655E0
1.321256112E1,4.687818038E-1,-6.555681258E0,-2.478230088E0,7.024125391E0
1.322251612E1,5.376637584E-1,-8.273808979E0,-2.366101688E0,8.622263887E0
1.323247012E1,3.086362150E0,-1.060164985E1,-2.606094661E0,1.134514611E1
1.324242412E1,4.796477432E0,-1.217502331E1,-2.263874963E0,1.328015506E1
1.325237812E1,6.791921634E0,-1.351856378E1,-1.714044903E0,1.522562695E1
1.326233212E1,9.022556638E0,-1.482529720E1,-1.497732714E0,1.741950541E1
1.327228612E1,1.049594155E1,-1.554846329E1,-1.904367971E0,1.885593055E1
1.328224013E1,1.179879826E1,-1.647128957E1,-1.900547693E0,2.035011307E1
1.329219412E1,1.205007533E1,-1.759605179E1,-1.237956126E0,2.136253472E1
1.330214812E1,1.093843778E1,-1.858854882E1,-8.803399779E-1,2.158607344E1
1.331210212E1,9.389849489E0,-1.946639364E1,-1.001247972E0,2.163590193E1
1.332205612E1,7.665548277E0,-1.920082597E1,-1.342133628E0,2.071795528E1
1.333201012E1,6.466873747E0,-1.778037708E1,-2.341603901E0,1.906424333E1
1.334196412E1,6.029192113E0,-1.578080708E1,-3.440995195E0,1.724022847E1
1.335191813E1,6.196949315E0,-1.325714179E1,-4.058926606E0,1.518647011E1
1.336187212E1,6.699832665E0,-1.019676057E1,-3.806578320E0,1.278091242E1
1.337182612E1,6.624662615E0,-7.072596756E0,-3.013357909E0,1.014830555E1
1.338178012E1,6.040961389E0,-4.180948057E0,-2.016653223E0,7.618427093E0
1.339173412E1,5.202378278E0,-1.693623794E0,-7.220374314E-1,5.518554101E0
1.340168812E1,3.770191097E0,4.148769075E-1,1.205461979E-1,3.794864312E0
1.341164212E1,2.103890757E0,2.277481726E0,1.702965014E-1,3.105202123E0
1.342159613E1,4.167047471E-1,3.973809857E0,-2.230994900E-1,4.001822211E0
1.343155012E1,-1.042110069E0,5.645672654E0,-3.767501378E-1,5.753394978E0
1.344150412E1,-2.106353019E0,7.281520695E0,-8.373329759E-2,7.580519635E0
1.345145812E1,-2.800777998E0,8.795278289E0,5.275439823E-1,9.245516764E0
1.346141212E1,-3.074242334E0,9.933499042E0,1.294304427E0,1.047857782E1
1.347136612E1,-3.123386720E0,1.051552855E1,1.828655884E0,1.112096523E1
1.348132012E1,-3.034737668E0,1.040390520E1,1.993657147E0,1.101932598E1
1.349127413E1,-3.358727794E0,1.006744823E1,1.778613074E0,1.076094934E1
1.350122913E1,-4.201932544E0,9.913783400E0,1.136910465E0,1.082736828E1
1.351118312E1,-5.136802340E0,9.721432225E0,4.635100273E-1,1.100490001E1
1.352113712E1,-5.898807390E0,9.425467803E0,-4.957269430E-2,1.111925489E1
1.353109112E1,-6.390652367E0,9.080801922E0,-3.977534095E-1,1.111123796E1
1.354104512E1,-6.797204009E0,8.609121069E0,-5.565894413E-1,1.098311157E1
1.355099913E1,-6.877877458E0,8.165021532E0,-4.546900141E-1,1.068548164E1
1.356095312E1,-6.795153975E0,7.882378821E0,-2.985659210E-1,1.041129939E1
1.357090713E1,-6.500408698E0,7.723252695E0,-8.799949922E-2,1.009513196E1
1.358086112E1,-6.019402120E0,7.720850658E0,3.100122841E-1,9.794939734E0
1.359081512E1,-5.626165758E0,7.964025832E0,8.375129970E-1,9.786770489E0
1.360076912E1,-5.208441256E0,8.080056226E0,1.190270840E0,9.686687442E0
1.361072312E1,-4.774295434E0,8.152012646E0,1.398820045E0,9.550178249E0
1.362067712E1,-4.327663468E0,8.445815937E0,1.568825501E0,9.618819646E0
1.363063112E1,-3.994362528E0,8.767542021E0,1.601001559E0,9.766674516E0
1.364058513E1,-3.859153852E0,9.103884975E0,1.408431698E0,9.987866136E0
1.365053912E1,-3.916922004E0,9.340545182E0,9.959679365E-1,1.017742671E1
1.366049312E1,-3.976798077E0,9.328781753E0,4.401186796E-1,1.015060572E1
1.367044712E1,-4.056115557E0,9.132636319E0,-9.468520559E-2,9.993301999E0
1.368040112E1,-4.102274647E0,8.930183494E0,-6.312186241E-1,9.847602321E0
1.369035512E1,-3.849118568E0,8.353201888E0,-1.192800418E0,9.274398545E0
1.370030912E1,-3.062926218E0,7.183959317E0,-1.644702480E0,7.980967030E0
1.371026313E1,-2.369687931E0,5.356993863E0,-2.107742318E0,6.225382062E0
1.372021725E1,-1.373349281E0,2.746106824E0,-2.560363587E0,3.997830992E0
1.373017125E1,6.063103625E-1,-1.299868199E0,-2.917620277E0,3.251119449E0
1.374012525E1,1.916453289E0,-5.747489635E0,-3.166274292E0,6.836060504E0
1.375007925E1,1.472224528E0,-8.962345519E0,-3.584034462E0,9.764035297E0
1.376003325E1,1.825680529E0,-1.230861933E1,-4.643109058E0,1.328132828E1
1.376998725E1,2.955644136E0,-1.580684356E1,-4.990048921E0,1.683724217E1
1.377994225E1,5.567653255E0,-1.966178654E1,-4.375684311E0,2.089811537E1
1.378989625E1,8.126274372E0,-2.281991917E1,-3.321107394E0,2.445025154E1
1.379985025E1,9.450106800E0,-2.337246936E1,-3.169429450E0,2.540909533E1
1.380980425E1,1.140924389E1,-2.246437338E1,-2.850466175E0,2.535634190E1
1.381975825E1,1.365399699E1,-2.131958445E1,-3.515705654E-1,2.531955601E1
1.382971225E1,1.467799414E1,-2.042852024E1,2.281555773E0,2.525813627E1
1.383966625E1,1.368022994E1,-1.934031130E1,3.643106250E0,2.396807367E1
1.384962025E1,1.120078129E1,-1.826479784E1,2.843208611E0,2.161351839E1
1.385957425E1,8.479151498E0,-1.693304770E1,2.473160259E-1,1.893898835E1
1.386952825E1,6.064464857E0,-1.483977490E1,-2.493153352E0,1.622382405E1
1.387948225E1,4.354357177E0,-1.180837249E1,-4.864910320E0,1.349316270E1
1.388943625E1,3.956969876E0,-7.962988536E0,-5.389780955E0,1.039791016E1
1.389939025E1,4.010982946E0,-4.093328115E0,-4.061678598E0,7.024283044E0
1.390934425E1,4.007029644E0,-5.365826082E-1,-2.287720931E0,4.645199083E0
1.391929825E1,3.547680276E0,2.640237722E0,-5.836525480E-1,4.460665967E0
1.392925225E1,2.586214128E0,5.365129094E0,6.922179472E-1,5.996021964E0
1.393920625E1,1.403159264E0,7.374796649E0,1.274711723E0,7.614549987E0
1.394916025E1,7.927274913E-2,8.903267006E0,1.066858483E0,8.967309216E0
1.395911425E1,-1.057518652E0,9.980607719E0,5.811852423E-1,1.005329063E1
1.396906825E1,-1.951529274E0,1.067171002E1,2.268088905E-1,1.085105080E1
1.397902225E1,-2.696422741E0,1.101957140E1,-1.425375760E-1,1.134557034E1
1.398897625E1,-3.495835353E0,1.109720839E1,-3.727692803E-1,1.164078416E1
1.399893025E1,-4.111610312E0,1.088705712E1,-3.862693318E-1,1.164399228E1
1.400888425E1,-4.541771548E0,1.060342273E1,-9.931261897E-2,1.153560251E1
1.401883825E1,-5.213061141E0,1.071328021E1,7.231251597E-2,1.191451252E1
1.402879225E1,-5.848374571E0,1.097345792E1,-1.769039647E-1,1.243589799E1
1.403874625E1,-6.175822740E0,1.102038884E1,-4.711276702E-1,1.264166595E1
1.404870025E1,-6.368701919E0,1.095197759E1,-7.013722750E-1,1.268850268E1
1.405865425E1,-6.431974640E0,1.079450038E1,-7.590013361E-1,1.258839224E1
1.406860925E1,-6.359479691E0,1.061258180E1,-5.330157701E-1,1.238361742E1
1.407856325E1,-6.149176394E0,1.039813868E1,-9.312041759E-2,1.208065932E1
1.408851725E1,-5.744965392E0,1.014978521E1,5.063806430E-1,1.167386776E1
1.409847125E1,-5.237058699E0,9.865646782E0,1.066580155E0,1.122031031E1
1.410842525E1,-4.695561506E0,9.587618694E0,1.657416666E0,1.080359940E1
1.411837925E1,-4.172877437E0,9.440620862E0,2.005233611E0,1.051471303E1
1.412833325E1,-3.630958368E0,9.327720484E0,2.073738274E0,1.022206528E1
1.413828725E1,-3.137150188E0,9.313567298E0,2.117550291E0,1.005327143E1
1.414824125E1,-2.862351226E0,9.383802883E0,2.127632207E0,1.003870658E1
1.415819525E1,-2.628589192E0,9.224306628E0,2.047959216E0,9.807724040E0
1.416814925E1,-2.573790841E0,8.845652636E0,2.067701755E0,9.441682075E0
1.417810325E1,-2.639353916E0,8.291925992E0,2.145166691E0,8.962363855E0
1.418805725E1,-2.669833989E0,7.512806726E0,2.008021563E0,8.222069631E0
1.419801125E1,-2.488017742E0,6.567422467E0,1.540035127E0,7.189782913E0
1.420796525E1,-2.276421041E0,5.233770225E0,7.378997581E-1,5.754905697E0
1.421791925E1,-2.173668213E0,3.760223933E0,-1.904541926E-1,4.347457916E0
1.422787325E1,-1.481136270E0,2.034372041E0,-1.350258919E0,2.855806961E0
1.423782725E1,2.254236120E-1,-8.345432693E-1,-2.643463047E0,2.781218286E0
1.424778125E1,1.280505437E0,-4.222156894E0,-3.400070533E0,5.570168995E0
1.425773525E1,8.124375781E-1,-6.555658454E0,-3.550892444E0,7.499703309E0
1.426768925E1,8.152135438E-1,-8.583826014E0,-3.696310066E0,9.381329877E0
1.427764325E1,2.402713882E0,-1.119992994E1,-3.439172910E0,1.195990698E1
1.428759725E1,4.184081872E0,-1.442730296E1,-2.424313205E0,1.521613966E1
1.429755125E1,5.414657350E0,-1.746276451E1,-8.301069868E-1,1.830179598E1
1.430750525E1,5.444472302E0,-1.876005350E1,6.093057449E-1,1.954362145E1
1.431745925E1,5.893128574E0,-1.854471224E1,1.402059549E0,1.950900017E1
1.432741325E1,7.340357133E0,-1.858016625E1,1.795457440E0,2.005809284E1
1.433736725E1,8.500280997E0,-1.926055762E1,2.017701190E0,2.114934928E1
1.434732225E1,8.712209820E0,-1.972799807E1,1.615466694E0,2.162651707E1
1.435727625E1,8.043982998E0,-1.949953917E1,5.112397523E-1,2.109974067E1
1.436723025E1,6.417209251E0,-1.843108681E1,-1.150984640E0,1.955019952E1
1.437718425E1,4.840488839E0,-1.694111920E1,-3.471938953E0,1.795790110E1
1.438713825E1,4.091964252E0,-1.496970822E1,-5.947999431E0,1.661971820E1
1.439709225E1,4.591062699E0,-1.242777740E1,-7.779788253E0,1.536400381E1
1.440704625E1,5.558983589E0,-9.342080660E0,-8.427825809E0,1.375518148E1
1.441700025E1,6.459990989E0,-5.831289591E0,-7.764652151E0,1.166298611E1
1.442695425E1,6.801752558E0,-2.336298283E0,-6.156238661E0,9.466858084E0
1.443690825E1,6.411387763E0,5.880112088E-1,-4.495865643E0,7.852672036E0
1.444686225E1,5.727186348E0,3.007829951E0,-3.072446362E0,7.161538321E0
1.445681625E1,4.868151724E0,4.922716479E0,-2.064027364E0,7.224420233E0
1.446677025E1,3.779816491E0,6.375155491E0,-1.636976992E0,7.590079968E0
1.447672425E1,2.377588981E0,7.469530898E0,-1.584426019E0,7.997326241E0
1.448667825E1,6.940147966E-1,8.217576306E0,-1.533897743E0,8.388269140E0
1.449663225E1,-1.021943900E0,8.739505207E0,-1.260026880E0,8.888812538E0
1.450658625E1,-2.575823625E0,8.959651707E0,-7.164640117E-1,9.350055975E0
1.451654025E1,-3.810462918E0,8.806759881E0,1.127015734E-1,9.596423756E0
1.452649425E1,-4.882677670E0,8.645748028E0,1.215087738E0,1.000329638E1
1.453644825E1,-5.658135409E0,8.507412261E0,2.284027976E0,1.046935258E1
1.454640225E1,-6.252565691E0,8.438010489E0,2.862353565E0,1.088520402E1
1.455635625E1,-6.753459234E0,8.303239185E0,2.953887048E0,1.110308251E1
1.456631025E1,-7.138064522E0,8.002697563E0,2.832254437E0,1.109129382E1
1.457626425E1,-7.374549896E0,7.564316602E0,2.748184340E0,1.091583203E1
1.458621825E1,-7.431414068E0,7.292964281E0,2.810646636E0,1.078484945E1
1.459617225E1,-7.326447777E0,7.270753632E0,2.927870154E0,1.072907820E1
1.460612625E1,-6.948548076E0,7.359980974E0,3.065167748E0,1.057576917E1
1.461608025E1,-6.419035921E0,7.597170938E0,3.079701587E0,1.041180053E1
1.462603425E1,-6.101705189E0,7.956320372E0,2.778355973E0,1.040447509E1
1.463598925E1,-6.006586778E0,8.262752479E0,2.186642307E0,1.044670129E1
1.464594325E1,-6.171302258E0,8.570727666E0,1.461561838E0,1.066201235E1
1.465589725E1,-6.233687371E0,9.007866678E0,6.866701090E-1,1.097597541E1
1.466585125E1,-6.000972866E0,9.217825574E0,-1.408009529E-2,1.099909914E1
1.467580525E1,-5.928544575E0,9.484790145E0,-5.424040961E-1,1.119835198E1
1.468575925E1,-5.822831594E0,9.733806102E0,-8.687851489E-1,1.137572576E1
1.469571325E1,-5.506058101E0,9.786386604E0,-9.576207268E-1,1.126974161E1
1.470566725E1,-5.010469152E0,9.596486582E0,-8.694634259E-1,1.086063177E1
1.471562125E1,-4.576065761E0,9.208682867E0,-7.339471865E-1,1.030916565E1
1.472557525E1,-4.121463162E0,8.470505805E0,-7.742906356E-1,9.451743394E0
1.473552925E1,-3.342046565E0,7.295907184E0,-1.054527801E0,8.093921532E0
1.474548325E1,-2.181328357E0,5.587678215E0,-1.693245479E0,6.232769969E0
1.475543725E1,1.268559283E-1,2.179090628E0,-2.650198454E0,3.433377381E0
1.476539125E1,3.099439448E0,-3.349906685E0,-3.773650895E0,5.921895032E0
1.477534525E1,4.594796731E0,-9.251250013E0,-4.422741534E0,1.123647749E1
1.478529925E1,2.145854470E0,-1.206337424E1,-4.365699606E0,1.300726807E1
1.479525325E1,2.255489763E0,-1.463601347E1,-4.987441063E0,1.562609013E1
1.480520725E1,5.197606366E0,-1.868217561E1,-4.423761288E0,1.988990853E1
1.481516125E1,7.479240199E0,-2.278032650E1,-1.952752512E0,2.405609179E1
1.482511525E1,6.687004459E0,-2.281846205E1,1.924705757E0,2.385587414E1
1.483506925E1,6.495077791E0,-2.039502505E1,4.288174882E0,2.182960206E1
1.484502325E1,8.297453949E0,-1.856811631E1,5.775548669E0,2.114189319E1
1.485497725E1,9.592064332E0,-1.763075619E1,6.703166163E0,2.116090023E1
1.486493125E1,9.837112370E0,-1.797752180E1,5.476996855E0,2.121220320E1
1.487488525E1,8.824016769E0,-1.885294003E1,2.469449909E0,2.096174617E1
1.488483925E1,6.993467556E0,-1.921074636E1,-3.873417842E-1,2.044777244E1
1.489479425E1,4.409200552E0,-1.844905297E1,-3.023969436E0,1.920814921E1
1.490474825E1,1.832055748E0,-1.622728176E1,-5.359014076E0,1.718720842E1
1.491470225E1,3.693899551E-1,-1.265096211E1,-6.542881118E0,1.424754662E1
1.492465625E1,6.073649079E-1,-8.256870764E0,-5.935176487E0,1.018681142E1
1.493461025E1,1.337802595E0,-3.993525499E0,-4.177991120E0,5.932417003E0
1.494456425E1,1.564085748E0,-2.241512579E-1,-2.409963845E0,2.881758794E0
1.495451825E1,1.339211482E0,2.934826294E0,-1.080056745E0,3.401942878E0
1.496447225E1,3.121889833E-1,5.404513600E0,-3.186640437E-1,5.422893691E0
1.497442625E1,-1.056969014E0,7.204204132E0,1.006539702E-2,7.281335179E0
1.498438025E1,-2.383403745E0,8.415185882E0,2.252404480E-1,8.749097102E0
1.499433425E1,-3.245299704E0,9.061203809E0,7.501789109E-1,9.654022635E0
1.500428825E1,-3.913030097E0,9.341988859E0,1.438516792E0,1.023004843E1
1.501424225E1,-4.525995468E0,9.541905162E0,2.286595927E0,1.080560549E1
1.502419625E1,-5.053340353E0,9.667350742E0,3.170926630E0,1.135996016E1
1.503415025E1,-5.389339491E0,9.725298404E0,3.532456465E0,1.166639010E1
1.504410425E1,-5.651594714E0,9.707191916E0,3.294922392E0,1.170583663E1
1.505405825E1,-5.898581103E0,9.586269742E0,2.763518078E0,1.158994645E1
1.506401225E1,-6.055401088E0,9.498073849E0,2.359609670E0,1.150865096E1
1.507396625E1,-6.066362278E0,9.276115882E0,2.137746720E0,1.128791558E1
1.508392025E1,-5.998559135E0,8.856066527E0,1.990089615E0,1.087993946E1
1.509387425E1,-5.866915507E0,8.390473210E0,2.119415699E0,1.045526954E1
1.510382825E1,-5.800028037E0,8.125020729E0,2.520074225E0,1.029597306E1
1.511378225E1,-5.758712196E0,8.048335665E0,3.046027180E0,1.035455237E1
1.512373625E1,-5.514017916E0,7.987018254E0,3.673945928E0,1.037760728E1
1.513369025E1,-5.175649486E0,8.105784559E0,4.268673248E0,1.052200847E1
1.514364425E1,-4.748566224E0,8.195421206E0,4.514439324E0,1.049256748E1
1.515359825E1,-4.338367673E0,8.310164042E0,4.531366720E0,1.041218252E1
1.516355225E1,-3.967217122E0,8.505186226E0,4.476375704E0,1.039783361E1
1.517350625E1,-3.683156754E0,8.625618988E0,4.289102250E0,1.031326062E1
1.518346025E1,-3.465229565E0,8.782603864E0,3.961224310E0,1.023881070E1
1.519341525E1,-3.329970895E0,8.886484328E0,3.564187843E0,1.013714678E1
1.520336925E1,-3.108231906E0,8.784151037E0,3.202626432E0,9.852879330E0
1.521332325E1,-2.792566753E0,8.342231927E0,2.727937479E0,9.210478027E0
1.522327725E1,-2.424068791E0,7.310244557E0,2.012672000E0,7.960316173E0
1.523323125E1,-1.885534090E0,5.731764718E0,1.079887322E0,6.129806051E0
1.524318525E1,-6.052099165E-1,2.880823165E0,6.047541261E-2,2.944329877E0
1.525313925E1,1.118868223E0,-1.606854038E0,-1.064445848E0,2.228652275E0
1.526309325E1,1.999417970E0,-6.707861477E0,-2.046683207E0,7.292598300E0
1.527304725E1,3.301796964E-1,-9.940280643E0,-2.400183646E0,1.023127946E1
1.528300125E1,-4.961771786E-2,-1.243736683E1,-2.963184121E0,1.278557843E1
1.529295525E1,2.532493126E0,-1.537649317E1,-3.051376505E0,1.587957689E1
1.530290925E1,4.920662352E0,-1.741654110E1,-2.530846843E0,1.827440854E1
1.531286325E1,7.708716516E0,-1.872323359E1,-1.932955009E0,2.034011065E1
1.532281725E1,9.255092218E0,-1.802137826E1,-2.161972904E0,2.037402594E1
1.533277125E1,1.095706116E1,-1.701044963E1,-2.489566669E0,2.038652811E1
1.534272525E1,1.240285773E1,-1.647419096E1,-1.486477994E0,2.067460918E1
1.535267925E1,1.255096654E1,-1.695467421E1,-4.458360140E-1,2.109944332E1
1.536263325E1,1.142937000E1,-1.801095852E1,-4.981604080E-1,2.133713404E1
1.537258725E1,9.480250951E0,-1.822965842E1,-8.895611832E-1,2.056664589E1
1.538254125E1,7.013366801E0,-1.735313156E1,-1.415986008E0,1.877028250E1
1.539249525E1,4.906777554E0,-1.521824178E1,-2.326352023E0,1.615807113E1
1.540244925E1,3.898180801E0,-1.207260115E1,-3.182716663E0,1.307949530E1
1.541240325E1,3.368783543E0,-8.361521891E0,-3.663340248E0,9.730560758E0
1.542235725E1,3.197868553E0,-4.822988707E0,-3.652897998E0,6.843335965E0
1.543231125E1,2.996202178E0,-1.339816377E0,-2.844164046E0,4.342994881E0
1.544226525E1,2.597005164E0,1.690629435E0,-1.620735912E0,3.497062854E0
1.545222025E1,1.916597423E0,4.166874393E0,-6.537562783E-1,4.632880871E0
1.546217425E1,9.679094875E-1,6.185820310E0,-4.774602413E-2,6.261269948E0
1.547212825E1,-7.083814055E-2,7.794642520E0,2.683977234E-1,7.799583796E0
1.548208225E1,-1.064246751E0,9.166315112E0,4.562980715E-1,9.239164562E0
1.549203625E1,-1.936389956E0,1.028290643E1,6.392901937E-1,1.048315137E1
1.550199025E1,-2.617507841E0,1.113041356E1,8.104568338E-1,1.146273500E1
1.551194425E1,-3.052610852E0,1.158312371E1,8.477258170E-1,1.200857306E1
1.552189825E1,-3.383188452E0,1.145755943E1,7.324536614E-1,1.196904844E1
1.553185225E1,-3.905381939E0,1.103522791E1,2.793191528E-1,1.170923918E1
1.554180625E1,-4.485354396E0,1.066652588E1,-4.285715982E-1,1.157915593E1
1.555176025E1,-4.952865307E0,1.042449559E1,-1.086010307E0,1.159225610E1
1.556171425E1,-5.225832630E0,1.012181447E1,-1.601579264E0,1.150328262E1
1.557166825E1,-5.320254638E0,9.597217484E0,-1.744549534E0,1.111103712E1
1.558162225E1,-5.321597743E0,9.021336324E0,-1.462132527E0,1.057552567E1
1.559157625E1,-5.290556045E0,8.581899356E0,-8.810280490E-1,1.012003904E1
1.560153025E1,-5.223563325E0,8.388184025E0,-1.299368262E-1,9.882516311E0
1.561148425E1,-5.127365518E0,8.397081733E0,6.381699403E-1,9.859417816E0
1.562143825E1,-4.840744070E0,8.541889783E0,1.371513548E0,9.913512679E0
1.563139225E1,-4.388274244E0,8.715947360E0,2.148234286E0,9.991976770E0
1.564134625E1,-3.869677963E0,8.857520145E0,2.746122612E0,1.004844565E1
1.565130025E1,-3.359001152E0,8.936962171E0,3.228843008E0,1.007857176E1
1.566125425E1,-3.057074617E0,8.911503394E0,3.487689890E0,1.004612257E1
1.567120825E1,-2.972756013E0,8.799327486E0,3.305239220E0,9.858501347E0
1.568116225E1,-2.991462425E0,8.621347597E0,2.818515819E0,9.550943055E0
1.569111625E1,-3.026699793E0,8.460875441E0,2.215393066E0,9.255014387E0
1.570107025E1,-3.043555854E0,8.196217597E0,1.579540962E0,8.884602680E0
1.571102425E1,-2.865623620E0,7.691832097E0,9.454596877E-1,8.262564599E0
1.572097767E1,-2.567506253E0,6.903259052E0,3.957337081E-1,7.375884969E0
1.573093167E1,-2.103527060E0,5.636519423E0,-2.726333734E-1,6.022416977E0
1.574088667E1,-1.099347879E0,3.356229864E0,-1.136898771E0,3.710172971E0
1.575084067E1,3.624104261E-1,-4.812001204E-1,-1.939492196E0,2.030892624E0
1.576079467E1,1.682168222E0,-5.316212457E0,-2.710760990E0,6.200002417E0
1.577074867E1,1.191679799E0,-9.358227162E0,-2.954931360E0,9.885754180E0
1.578070267E1,8.145247418E-1,-1.318271726E1,-3.512102015E0,1.366683377E1
1.579065667E1,3.241412183E0,-1.796914391E1,-3.876596389E0,1.866614276E1
1.580061067E1,4.550817483E0,-2.115443569E1,-3.163322618E0,2.186839498E1
1.581056467E1,6.310890498E0,-2.286413582E1,-1.927921726E0,2.379733026E1
1.582051867E1,7.133126548E0,-2.146070349E1,-7.657396674E-1,2.262807207E1
1.583047267E1,8.883787007E0,-1.907062602E1,-7.768259883E-2,2.103845249E1
1.584042667E1,1.117019802E1,-1.783831012E1,1.515908346E0,2.110157837E1
1.585038067E1,1.206227496E1,-1.786844316E1,3.105315900E0,2.178124710E1
1.586033467E1,1.110130612E1,-1.869877351E1,2.836377894E0,2.193007451E1
1.587028867E1,9.016270296E0,-1.912018234E1,8.159450305E-1,2.115514758E1
1.588024267E1,6.390103898E0,-1.802514620E1,-1.052695211E0,1.915326319E1
1.589019667E1,3.753979692E0,-1.590150063E1,-2.928717123E0,1.659902014E1
1.590015067E1,2.196790150E0,-1.259889032E1,-4.197568767E0,1.346021945E1
1.591010467E1,2.461096869E0,-8.545819697E0,-3.932914431E0,9.723983135E0
1.592005867E1,3.407396509E0,-4.714262071E0,-2.680974104E0,6.404860654E0
1.593001267E1,4.979378337E0,-1.434740660E0,-1.384577397E0,5.363743465E0
1.593996667E1,5.494819753E0,2.347313853E0,-1.892556596E-1,5.978189035E0
1.594992067E1,4.729728541E0,5.699225548E0,2.945616746E-1,7.412035517E0
1.595987467E1,2.847579697E0,7.809112040E0,7.657162055E-1,8.347290715E0
1.596982867E1,6.107191631E-1,8.811708965E0,1.025620337E0,8.892192635E0
1.597978267E1,-1.799696964E0,9.058519937E0,1.299222082E0,9.326503666E0
1.598973667E1,-4.505781351E0,8.956947370E0,1.105685091E0,1.008719541E1
1.599969067E1,-6.728180552E0,8.244492209E0,-6.357642496E-1,1.066040625E1
1.600964467E1,-7.784559581E0,7.940285552E0,-2.389664651E0,1.137356583E1
1.601959967E1,-7.795023758E0,8.490065911E0,-2.967294713E0,1.190161554E1
1.602955367E1,-6.783708635E0,9.160381942E0,-2.567520579E0,1.168432549E1
1.603950767E1,-5.314682826E0,9.745236239E0,-1.692735018E0,1.122857225E1
1.604946167E1,-4.117157857E0,1.023709466E1,-7.503895569E-1,1.105948373E1
1.605941567E1,-3.215958669E0,1.023597200E1,-5.093743443E-2,1.072940388E1
1.606936967E1,-2.619502911E0,9.698314088E0,2.376168108E-1,1.004865928E1
1.607932367E1,-2.697329059E0,8.949273484E0,1.215074801E-1,9.347718653E0
1.608927767E1,-3.405321040E0,8.372127571E0,-3.356511553E-1,9.044412261E0
1.609923167E1,-4.307262240E0,8.035071841E0,-9.135526013E-1,9.162394112E0
1.610918567E1,-4.859541991E0,7.807094750E0,-1.259476218E0,9.281818634E0
1.611913967E1,-5.353986640E0,7.872246181E0,-1.295403850E0,9.608095754E0
1.612909367E1,-5.617232966E0,8.034318135E0,-1.077260606E0,9.862254535E0
1.613904767E1,-5.593770429E0,8.229018137E0,-6.639231976E-1,9.972351835E0
1.614900167E1,-5.499873501E0,8.580800080E0,-1.936528023E-1,1.019393153E1
1.615895567E1,-5.269944609E0,9.001783234E0,2.297335947E-1,1.043346515E1
1.616890967E1,-4.878161573E0,9.331253956E0,5.281497904E-1,1.054266109E1
1.617886367E1,-4.342047034E0,9.473666402E0,6.345784342E-1,1.044061384E1
1.618881767E1,-3.815232492E0,9.525020742E0,4.717241228E-1,1.027154043E1
1.619877167E1,-3.473487295E0,9.565049611E0,1.069058315E-1,1.017677340E1
1.620872567E1,-3.118101422E0,9.490628005E0,-2.741864487E-1,9.993485608E0
1.621867967E1,-2.728197095E0,9.268228573E0,-6.162555993E-1,9.681058373E0
1.622863367E1,-2.195335363E0,8.578274083E0,-1.016173575E0,8.912849843E0
1.623858767E1,-1.254543507E0,7.012585613E0,-1.556648090E0,7.292008616E0
1.624854167E1,2.755576390E-1,4.363904511E0,-2.097376374E0,4.849596091E0
1.625849567E1,2.497069232E0,1.016602761E-1,-2.389824865E0,3.457882653E0
1.626844967E1,4.496396863E0,-5.137367765E0,-2.125744725E0,7.150449143E0
1.627840367E1,5.016223397E0,-9.423365144E0,-1.402595007E0,1.076705998E1
1.628835767E1,5.954599183E0,-1.322785893E1,-1.515359731E0,1.458526032E1
1.629831267E1,8.213677382E0,-1.785631370E1,-1.879795632E0,1.974451991E1
1.630826667E1,1.038923688E1,-2.288440460E1,-1.291110824E0,2.516543630E1
1.631822067E1,1.008203001E1,-2.580309609E1,1.003041898E0,2.772098826E1
1.632817467E1,8.634191591E0,-2.472716163E1,3.326511390E0,2.640165648E1
1.633812867E1,9.618206064E0,-2.328928687E1,4.988173134E0,2.568623448E1
1.634808267E1,9.815159583E0,-2.211789544E1,7.186339134E0,2.524246673E1
1.635803667E1,8.892190626E0,-2.108475325E1,8.502044517E0,2.441152668E1
1.636799067E1,7.648934584E0,-1.980461531E1,7.726356397E0,2.259259992E1
1.637794467E1,6.108644664E0,-1.841814224E1,4.539225086E0,1.992857415E1
1.638789867E1,4.737136379E0,-1.691454945E1,2.828366916E-1,1.756765325E1
1.639785267E1,3.007314811E0,-1.459268677E1,-3.909678766E0,1.540376700E1
1.640780667E1,1.316127844E0,-1.108935441E1,-7.439521233E0,1.341836242E1
1.641776067E1,4.605278742E-1,-6.534003291E0,-9.754113482E0,1.174938359E1
1.642771467E1,-2.299829784E-1,-1.559903820E0,-1.126580233E1,1.137560962E1
1.643766867E1,5.030418098E-1,2.054975290E0,-7.952562951E0,8.229169581E0
1.644762267E1,1.112352086E0,5.261031699E0,-3.719630224E0,6.538457823E0
1.645757667E1,1.191104726E0,7.876209424E0,-1.883336706E0,8.185374916E0
1.646753067E1,9.126161698E-1,9.391028872E0,-7.462228310E-1,9.464731378E0
1.647748467E1,3.742510378E-3,1.031782249E1,-2.651455386E-1,1.032122944E1
1.648743867E1,-1.137510316E0,1.080951837E1,-2.134270258E-3,1.086920520E1
1.649739267E1,-2.057236408E0,1.085018926E1,4.917976141E-2,1.104360662E1
1.650734667E1,-2.694322128E0,1.038802299E1,-1.370364789E-1,1.073262188E1
1.651730067E1,-3.114833997E0,9.895130782E0,-2.604536963E-1,1.037707281E1
1.652725467E1,-3.535302013E0,9.816338382E0,-1.301087344E-1,1.043435613E1
1.653720867E1,-3.836003556E0,9.801071302E0,-5.871540070E-2,1.052517788E1
1.654716267E1,-3.966979140E0,9.823422868E0,-1.924439270E-2,1.059419325E1
1.655711667E1,-3.808879784E0,9.730257427E0,2.560729623E-1,1.045232262E1
1.656707067E1,-3.504661433E0,9.430170718E0,8.116882575E-1,1.009304758E1
