"Time (s)","Linear Acceleration x (m/s^2)","Linear Acceleration y (m/s^2)","Linear Acceleration z (m/s^2)","Absolute acceleration (m/s^2)"
5.579541663E-3,-2.123705801E-1,3.762331343E-1,-1.301149909E0,1.371000992E0
1.553354166E-2,-2.149617738E-1,3.005202797E-1,-6.238932323E-1,7.250956958E-1
2.548654166E-2,-1.921810216E-1,2.594782528E-1,5.030090654E-1,5.977295614E-1
3.544054167E-2,-7.544603884E-2,1.832254444E-1,1.308366542E0,1.323286317E0
4.539454167E-2,-4.026977420E-2,-7.478470048E-2,1.352280301E0,1.354945172E0
5.534754167E-2,-3.000206351E-2,-2.190817950E-1,9.591018265E-1,9.842628056E-1
6.530154167E-2,-1.220568261E-1,-7.256504260E-2,3.603966451E-1,3.873619702E-1
7.525454167E-2,-3.114779618E-1,1.112910422E-1,-3.410599029E-1,4.751063819E-1
8.520854166E-2,-4.905939648E-1,1.479781178E-1,-9.072446251E-1,1.041956223E0
9.516154166E-2,-5.553656191E-1,1.592489914E-1,-1.139169171E0,1.277300909E0
1.051155417E-1,-6.436901504E-1,2.214838312E-1,-1.154201778E0,1.339990239E0
1.150685417E-1,-7.451501593E-1,3.421572426E-1,-1.111204278E0,1.380976208E0
1.250225417E-1,-8.395096019E-1,4.339621463E-1,-9.391558045E-1,1.332333720E0
1.349765417E-1,-7.401937670E-1,4.184775132E-1,-4.958859873E-1,9.843338631E-1
1.449295417E-1,-6.347576514E-1,3.039949145E-1,2.472436666E-2,7.042311257E-1
1.548835417E-1,-5.121210739E-1,8.393155474E-2,3.249128169E-1,6.122751332E-1
1.648365417E-1,-5.322430971E-1,-5.230480582E-3,4.143103123E-1,6.745095309E-1
1.747905417E-1,-6.240215787E-1,-8.833699320E-2,2.984009564E-1,6.973159154E-1
1.847435417E-1,-6.467114067E-1,-2.703094706E-1,3.059421104E-1,7.647897936E-1
1.946975417E-1,-7.255926847E-1,-2.792133913E-1,5.281070691E-1,9.398627232E-1
2.046515417E-1,-6.679721752E-1,-1.657449556E-1,7.236326981E-1,9.986503386E-1
2.146045417E-1,-5.078084600E-1,3.053328305E-2,8.903853482E-1,1.025469542E0
2.245585417E-1,-4.732639870E-1,2.298974629E-1,9.293073392E-1,1.067915622E0
2.345115417E-1,-5.840608299E-1,4.097116964E-1,7.887946540E-1,1.063573097E0
2.444655417E-1,-9.652124593E-1,5.057633232E-1,4.094618011E-1,1.164083587E0
2.544185417E-1,-1.456432953E0,4.809003776E-1,-1.110871571E-1,1.537791428E0
2.643725417E-1,-1.554092272E0,4.003805635E-1,-5.975754994E-1,1.712484704E0
2.743265417E-1,-1.751882527E0,4.178643230E-1,-9.163411385E-1,2.020738495E0
2.842795417E-1,-2.710022195E0,8.670764463E-1,-7.794373548E-1,2.950180410E0
2.942335417E-1,-3.568489054E0,1.460755361E0,9.389049590E-2,3.857037177E0
3.041865417E-1,-4.079671650E0,1.721025309E0,1.564475173E0,4.696086823E0
3.141402500E-1,-3.472442398E0,9.173812120E-1,2.730593576E0,4.511716500E0
3.240932500E-1,-1.750831490E0,-6.476368748E-1,2.533227829E0,3.146758278E0
3.340472500E-1,1.098520790E0,-2.137807239E0,1.406470542E0,2.784802884E0
3.440012500E-1,1.647538964E0,-3.523320775E0,1.266832016E0,4.090603535E0
3.539542500E-1,8.412412548E-1,-3.109313349E0,-2.121276283E-1,3.228082168E0
3.639082500E-1,4.854399365E-1,-2.015836075E0,-6.294977885E-1,2.166913583E0
3.738612500E-1,-1.839256302E-1,-5.890840998E-1,-4.123783922E-1,7.422295146E-1
3.838152500E-1,-2.594403738E-1,6.777497430E-1,-3.555972505E-1,8.081481462E-1
3.937682500E-1,5.211111680E-1,1.557532481E0,-3.452348149E-1,1.678288222E0
4.037222500E-1,9.463765311E-1,1.586726460E0,-4.936587828E-1,1.912335847E0
4.136762500E-1,9.311205608E-1,7.782304895E-1,-2.492289718E0,2.772027459E0
4.236292500E-1,9.135335979E-1,-6.014824627E-1,-5.095890541E0,5.211950229E0
4.335832500E-1,8.010998270E-1,-1.197441426E0,-5.505216102E0,5.690609039E0
4.435362500E-1,4.298171282E-2,-9.731439880E-1,-5.537120849E0,5.622149407E0
4.534902500E-1,-1.521327545E0,-1.162194410E0,-4.956309317E0,5.313203873E0
4.634432500E-1,-2.680553982E0,-1.097305885E0,-5.472318497E0,6.191584578E0
4.733972500E-1,-3.245284209E0,-6.231886429E-1,-4.632910929E0,5.690702713E0
4.833512500E-1,-4.887817957E0,5.077214827E-1,-2.515756933E0,5.520650182E0
4.933042500E-1,-3.637699623E0,4.909213357E-1,-4.158749687E0,5.546986683E0
5.032582500E-1,-1.205043903E0,-5.882709713E-1,-5.562676690E0,5.722024598E0
5.132112500E-1,-1.846039072E-1,-6.367463625E-1,-4.971112128E0,5.015125156E0
5.231652500E-1,5.985018446E-1,-3.779368302E-1,-3.307819596E0,3.382707671E0
5.331182500E-1,7.302733809E-1,-5.491943215E-1,-2.515617185E0,2.676423627E0
5.430722500E-1,-6.199017768E-1,-1.255627873E0,-3.725491472E0,3.979970638E0
5.530262500E-1,-1.408021808E0,-1.559795646E0,-5.162621305E0,5.573880749E0
5.629792500E-1,-1.616686423E0,-1.966561150E0,-6.685070200E0,7.153404876E0
5.729332500E-1,-1.868155580E0,-2.095682143E0,-7.295570385E0,7.817111753E0
5.828862500E-1,-1.384859525E0,-2.257108126E0,-7.308104476E0,7.773079443E0
5.928402500E-1,-6.963197690E-1,-2.331182408E0,-6.941437277E0,7.355462196E0
6.027932500E-1,-1.447466540E-1,-2.365921155E0,-6.642404822E0,7.052664484E0
6.127472500E-1,-4.323402017E-2,-2.357074318E0,-7.461229021E0,7.824807156E0
6.227012500E-1,-8.816788441E-1,-2.287350949E0,-8.392912669E0,8.743587079E0
6.326542500E-1,-1.693005159E0,-2.642839149E0,-8.161634824E0,8.744320914E0
6.426082500E-1,1.382480586E-1,-2.865016971E0,-6.873467488E0,7.447952073E0
6.525612500E-1,7.990623647E-1,-2.702633068E0,-5.394497904E0,6.086323505E0
6.625152500E-1,-7.013735175E-2,-3.232656562E0,-4.759727097E0,5.754128060E0
6.724682500E-1,-5.818839115E-1,-4.194218313E0,-4.974469600E0,6.532641421E0
6.824222500E-1,4.062236130E-2,-5.406819157E0,-4.575795327E0,7.083307592E0
6.923762500E-1,6.561768794E-1,-6.503974915E0,-4.297535105E0,7.823111003E0
7.023292500E-1,4.181811690E-2,-6.585851136E0,-4.375229398E0,7.906820868E0
7.122832500E-1,5.121120107E-1,-6.530195584E0,-4.030867572E0,7.691138177E0
7.222362500E-1,2.239846122E0,-6.895807360E0,-2.994947950E0,7.844665897E0
7.321902500E-1,3.852799391E0,-6.859654611E0,-1.460614005E0,8.002019607E0
7.421432500E-1,4.533867282E0,-6.189977095E0,5.059888065E-2,7.672960916E0
7.520972500E-1,5.367617669E0,-5.883818053E0,1.324245534E0,8.073677016E0
7.620512500E-1,5.570140661E0,-5.854295461E0,1.892741953E0,8.299500854E0
7.720042500E-1,5.492016013E0,-5.694334937E0,1.766950510E0,8.106158422E0
7.819582500E-1,5.085822805E0,-5.634027339E0,1.405170706E0,7.718961224E0
7.919112500E-1,4.738377743E0,-5.442545645E0,9.060272348E-1,7.272854466E0
8.018652500E-1,4.884174557E0,-5.098783743E0,8.742859170E-1,7.114571851E0
8.118182500E-1,5.416438996E0,-4.715464259E0,1.796726578E0,7.402813045E0
8.217722500E-1,5.833046095E0,-4.178539004E0,3.647532885E0,8.049168348E0
8.317262500E-1,5.934750225E0,-3.558096798E0,5.450829395E0,8.808680614E0
8.416792500E-1,6.189693505E0,-2.840176830E0,6.552331973E0,9.450500748E0
8.516332500E-1,6.335048270E0,-1.913834614E0,6.847999356E0,9.523166211E0
8.615862500E-1,6.095205424E0,-1.181249828E0,6.409620150E0,8.923570517E0
8.715402500E-1,5.792237792E0,-5.399617141E-1,5.457625029E0,7.976668995E0
8.814932500E-1,5.667180467E0,1.549266565E-1,4.415747679E0,7.186081288E0
8.914472500E-1,5.625686286E0,7.145969957E-1,3.480889578E0,6.653990330E0
9.014012500E-1,5.718644151E0,1.391298187E0,2.883571356E0,6.553898484E0
9.113542500E-1,6.082121694E0,2.084388539E0,2.753000692E0,6.993989755E0
9.213082500E-1,6.324867682E0,2.588033196E0,2.866136128E0,7.410573752E0
9.312612500E-1,6.549611848E0,2.812586158E0,3.288864092E0,7.850139061E0
9.412152500E-1,6.660357528E0,2.884474751E0,3.780677494E0,8.183769260E0
9.511682500E-1,6.453661963E0,2.849483258E0,3.915644680E0,8.068555064E0
9.611222500E-1,5.855309368E0,2.505851750E0,3.488057095E0,7.261575799E0
9.710762500E-1,5.079017231E0,2.144764549E0,2.857553000E0,6.209834148E0
9.810292500E-1,4.215833422E0,1.756810561E0,2.123283632E0,5.036662404E0
9.909832500E-1,3.744889318E0,1.232176153E0,1.479021040E0,4.210695585E0
1.000936250E0,3.587460346E0,6.581321883E-1,1.124638256E0,3.816781486E0
1.010890250E0,3.425361494E0,4.478411704E-1,1.176177953E0,3.649254398E0
1.020843250E0,3.506820517E0,5.989262062E-1,1.492522845E0,3.857995229E0
1.030797250E0,3.808639171E0,8.194533598E-1,1.819050078E0,4.299555714E0
1.040751250E0,3.984342155E0,1.089574258E0,1.973730567E0,4.577965358E0
1.050704250E0,3.953394889E0,1.348748583E0,1.870647663E0,4.576874104E0
1.060658250E0,3.506940385E0,1.529700612E0,1.444694960E0,4.089713725E0
1.070611250E0,3.196796758E0,1.761626328E0,9.461566758E-1,3.770682867E0
1.080565250E0,3.014225636E0,2.037636541E0,4.441387135E-1,3.665348285E0
1.090518250E0,2.798689373E0,1.935365231E0,-2.372507751E-1,3.410951292E0
1.100472250E0,2.573096484E0,2.029252803E0,-8.010603583E-1,3.373483386E0
1.110426250E0,1.919483901E0,2.062644498E0,-1.261033332E0,3.086928220E0
1.120379250E0,1.790102268E0,2.085381396E0,-1.486782049E0,3.124708395E0
1.130333250E0,1.938022498E0,2.085988337E0,-1.512453080E0,3.224095666E0
1.140286250E0,1.798090442E0,1.972153573E0,-1.088603035E0,2.882286509E0
1.150240250E0,1.680233670E0,2.056181570E0,-3.075471711E-1,2.673135444E0
1.160193250E0,1.695208974E0,2.055386934E0,8.544887066E-2,2.665642591E0
1.170147250E0,1.204457427E0,1.516891116E0,6.959052014E-1,2.058144894E0
1.180101250E0,9.456330577E-1,1.537004369E0,8.142890990E-1,1.979815912E0
1.190054250E0,5.221832550E-1,1.118243156E0,9.601597706E-2,1.237886172E0
1.200008250E0,-1.382796335E-1,4.874566412E-1,-6.924775636E-1,8.580561813E-1
1.209961250E0,-7.075282967E-1,2.537229663E-1,-9.525254631E-1,1.213373970E0
1.219915250E0,-7.918591797E-1,2.518243754E-1,-6.548413754E-1,1.057957326E0
1.229868250E0,-6.805773103E-1,2.477705008E-1,-6.844446588E-1,9.965140176E-1
1.239822250E0,-7.650011641E-1,3.652124119E-1,-4.872449720E-1,9.777599652E-1
1.249776250E0,-7.741602427E-1,3.237053668E-1,-2.015511847E-1,8.629786358E-1
1.259729250E0,-6.971465653E-1,3.068805885E-1,-9.625452518E-2,7.677590525E-1
1.269683250E0,-5.205635762E-1,4.147061688E-1,4.592987895E-2,6.671410624E-1
1.279636250E0,-2.885402119E-1,5.484319907E-1,3.316191712E-2,6.205906985E-1
1.289590250E0,-9.465297282E-2,5.964949340E-1,-1.061748930E-1,6.132197807E-1
1.299543250E0,1.555739433E-1,5.382712841E-1,-3.502797925E-1,6.607837469E-1
1.309497250E0,5.147444272E-1,4.712645316E-1,-4.882577097E-1,8.517321617E-1
1.319451042E0,8.256952626E-1,4.257106286E-1,-4.794097030E-1,1.045387904E0
1.329404042E0,9.951095653E-1,3.844158375E-1,-4.281904328E-1,1.149506690E0
1.339358042E0,9.621914953E-1,1.053276497E-1,-3.783674777E-1,1.039263362E0
1.349311042E0,9.462087160E-1,-3.362178236E-1,-4.179519582E-1,1.087675135E0
1.359265042E0,8.451185435E-1,-6.921758473E-1,-3.672425652E-1,1.152475535E0
1.369218042E0,8.260782552E-1,-1.030208062E0,-2.442183173E-1,1.342898552E0
1.379172042E0,9.927098680E-1,-1.235283363E0,-1.427632785E-1,1.591156568E0
1.389126042E0,1.233203509E0,-1.481354079E0,-3.717659712E-3,1.927489201E0
1.399079042E0,1.396478820E0,-1.761842675E0,1.825933055E-1,2.255567117E0
1.409033042E0,1.365173997E0,-1.923800608E0,1.794159651E-1,2.365776597E0
1.418986042E0,1.556957992E0,-2.000835920E0,3.199596405E-3,2.535246104E0
1.428940042E0,1.684016819E0,-1.923677232E0,-2.337845457E-1,2.567314151E0
1.438893042E0,1.787905469E0,-1.493542600E0,-4.903790796E-1,2.380703069E0
1.448847042E0,1.969928707E0,-1.012894456E0,-7.222515857E-1,2.329854426E0
1.458800042E0,2.075552811E0,-5.617478549E-1,-9.540398920E-1,2.352375871E0
1.468754042E0,2.170816233E0,-3.571327293E-1,-1.077265284E0,2.449589230E0
1.478708042E0,2.239346770E0,-3.623168707E-1,-1.016740755E0,2.485902097E0
1.488661042E0,2.094369736E0,-3.935263842E-1,-6.593951869E-1,2.230706080E0
1.498615042E0,1.588601369E0,-3.864986157E-1,-1.210549239E-1,1.639417514E0
1.508568042E0,9.691976291E-1,-6.217519820E-2,4.313140154E-1,1.062657790E0
1.518522042E0,3.111864781E-1,4.466711426E-1,9.115353119E-1,1.061719718E0
1.528475042E0,-2.510507888E-1,8.089178467E-1,1.214371966E0,1.480565383E0
1.538429042E0,-7.395336163E-1,1.086432549E0,1.287220087E0,1.839614418E0
1.548383042E0,-1.131052067E0,1.454033548E0,1.178871181E0,2.187059578E0
1.558336042E0,-1.296198487E0,1.746170382E0,7.929280508E-1,2.314730312E0
1.568290042E0,-1.360350044E0,1.862437588E0,4.130543303E-1,2.343040736E0
1.578243042E0,-1.388615484E0,1.877582461E0,1.588992548E-1,2.340687471E0
1.588197042E0,-1.243508057E0,1.806160476E0,-1.401869953E-1,2.197312073E0
1.598151042E0,-1.053290530E0,1.519812970E0,-4.214380682E-1,1.896539599E0
1.608104042E0,-9.726966029E-1,1.007698036E0,-6.810187751E-1,1.557363344E0
1.618058042E0,-1.001782992E0,4.716229659E-1,-7.371064371E-1,1.330159120E0
1.628011042E0,-1.092752804E0,8.682004273E-2,-6.511599684E-1,1.275012045E0
1.637965042E0,-1.068386287E0,-1.733190733E-1,-6.515926623E-1,1.263353378E0
1.647918042E0,-9.171310973E-1,-4.536883861E-1,-7.447236049E-1,1.265533820E0
1.657872042E0,-7.924544263E-1,-7.910417390E-1,-9.040637398E-1,1.439118583E0
1.667826042E0,-7.010337943E-1,-1.153154542E0,-1.046699549E0,1.707862326E0
1.677779042E0,-4.048799229E-1,-1.317767696E0,-1.020552555E0,1.715216304E0
1.687733042E0,-8.601780474E-2,-1.292897733E0,-7.690123540E-1,1.506772582E0
1.697686042E0,2.822085544E-1,-1.201759522E0,-2.350399429E-1,1.256626990E0
1.707640042E0,5.459758678E-1,-1.071344393E0,5.091439641E-1,1.305793258E0
1.717593042E0,5.978900796E-1,-7.923170167E-1,1.174772283E0,1.537962522E0
1.727547042E0,6.033835387E-1,-4.523441112E-1,1.634644099E0,1.800207827E0
1.737500042E0,5.841839138E-1,-1.308840752E-2,1.998919787E0,2.082575921E0
1.747454042E0,6.055288821E-1,5.894110322E-1,2.204672781E0,2.361070237E0
1.757408042E0,6.256909588E-1,1.209946793E0,2.197512281E0,2.585443993E0
1.767361042E0,4.812094760E-1,1.671272228E0,1.975247920E0,2.631789840E0
1.777315042E0,2.284244031E-1,2.032790369E0,1.638848248E0,2.621113880E0
1.787268042E0,6.724590361E-2,2.253321615E0,1.327881625E0,2.616342853E0
1.797222042E0,-1.228567252E-1,2.353530028E0,1.001947299E0,2.560877927E0
1.807175042E0,-2.407269448E-1,2.326091968E0,6.396561563E-1,2.424420200E0
1.817129042E0,-2.771688393E-1,2.324980997E0,2.945055413E-1,2.359892523E0
1.827083042E0,-3.276551610E-1,2.309995168E0,5.913407961E-2,2.333866411E0
1.837036042E0,-2.948271382E-1,2.229513507E0,-3.956109166E-2,2.249270682E0
1.846990042E0,-1.878096431E-1,2.015261586E0,-8.739014626E-2,2.025879749E0
1.856943042E0,-2.375592157E-1,1.801949896E0,-4.148248672E-2,1.818015018E0
1.866897042E0,-3.713677758E-1,1.458134785E0,3.157847285E-2,1.505014378E0
1.876850042E0,-4.132592753E-1,1.121485437E0,3.736838579E-2,1.195788113E0
1.886804042E0,-4.408230498E-1,7.896308059E-1,-1.090143375E-1,9.108929117E-1
1.896758042E0,-4.651576996E-1,3.871406400E-1,-4.255077302E-1,7.398015877E-1
1.906711042E0,-4.068945810E-1,-1.406033170E-1,-7.553573513E-1,8.694234992E-1
1.916665042E0,1.003048915E-1,-7.123358774E-1,-8.495723677E-1,1.113219063E0
1.926618042E0,4.976497999E-1,-1.186488934E0,-6.832518268E-1,1.456792494E0
1.936572042E0,7.664199910E-1,-1.619362986E0,-3.945069988E-1,1.834494986E0
1.946525042E0,9.789276883E-1,-1.992338161E0,-1.154828746E-2,2.219874801E0
1.956479042E0,1.200745907E0,-2.306282771E0,4.122743849E-1,2.632622480E0
1.966433042E0,1.361527381E0,-2.542734232E0,7.200694048E-1,2.972836042E0
1.976386042E0,1.488064051E0,-2.642071994E0,9.567974389E-1,3.179676144E0
1.986340042E0,1.570960320E0,-2.692756829E0,1.086727175E0,3.301489303E0
1.996293042E0,1.499747665E0,-2.680097022E0,1.110505463E0,3.265790178E0
2.006247042E0,1.480540731E0,-2.699512117E0,1.083419990E0,3.263918718E0
2.016200042E0,1.453556708E0,-2.679796475E0,9.987710917E-1,3.208064829E0
2.026154042E0,1.542300192E0,-2.632668502E0,9.047081760E-1,3.182472342E0
2.036108042E0,1.789917203E0,-2.496682731E0,8.413746444E-1,3.185143568E0
2.046061042E0,1.904695123E0,-2.139633617E0,8.307736424E-1,2.982629774E0
2.056015042E0,1.862478811E0,-1.702387601E0,8.519590549E-1,2.663228322E0
2.065968042E0,1.622269052E0,-1.350493392E0,7.098974423E-1,2.227003291E0
2.075922042E0,1.090896606E0,-1.158613502E0,4.741695745E-1,1.660505175E0
2.085875042E0,3.123635226E-1,-8.390163893E-1,3.342373717E-1,9.556328230E-1
2.095829042E0,-3.442402035E-1,-1.140721607E-1,3.841081278E-1,5.282545120E-1
2.105783042E0,-5.076046845E-1,8.106948155E-1,6.979903916E-1,1.184094247E0
2.115736042E0,-4.705114102E-1,1.932932205E0,9.174586145E-1,2.190739191E0
2.125690042E0,-9.305843711E-4,2.816162315E0,6.593296250E-1,2.892315094E0
2.135643042E0,7.080261871E-1,3.309736313E0,3.762098551E-2,3.384829521E0
2.145597042E0,1.333792283E0,3.448049276E0,-6.845616762E-1,3.759876374E0
2.155550042E0,1.700256583E0,3.127330082E0,-1.503191675E0,3.864020070E0
2.165504042E0,1.538308590E0,2.407912057E0,-2.125160004E0,3.561002504E0
2.175457042E0,8.366731176E-1,1.598996549E0,-2.379123145E0,2.986141123E0
2.185411042E0,1.049516737E-2,7.736375016E-1,-2.291810182E0,2.418887976E0
2.195365042E0,-3.219351223E-1,-2.251528859E-2,-1.863487748E0,1.891225991E0
2.205318042E0,-5.054786369E-1,-6.659621948E-1,-1.185097223E0,1.450334350E0
2.215272042E0,-7.407802427E-1,-1.024547372E0,-2.099805307E-1,1.281617927E0
2.225225042E0,-1.216002170E0,-1.102801244E0,6.895071781E-1,1.780520152E0
2.235179042E0,-1.399133748E0,-9.366584587E-1,1.501692595E0,2.256099502E0
2.245132042E0,-1.490031054E0,-4.855159503E-1,2.174387712E0,2.680276143E0
2.255086042E0,-1.386626261E0,1.215636134E-1,2.692088492E0,3.030651836E0
2.265040042E0,-1.120456327E0,7.497586423E-1,2.995474784E0,3.284878930E0
2.274993042E0,-8.453249502E-1,1.272062935E0,2.930707515E0,3.304809362E0
2.284947042E0,-7.494779760E-1,1.645594765E0,2.472948883E0,3.063523387E0
2.294900042E0,-8.649914753E-1,1.910274829E0,1.741374496E0,2.725755915E0
2.304854042E0,-9.570915538E-1,2.035913367E0,8.970155060E-1,2.421900968E0
2.314807042E0,-1.073733566E0,1.948658291E0,1.147201784E-1,2.227854040E0
2.324761292E0,-1.149220535E0,1.883637838E0,-5.248039770E-1,2.268086982E0
2.334715292E0,-1.132823773E0,2.039896490E0,-1.045569867E0,2.556889465E0
2.344668292E0,-1.016705087E0,2.178567302E0,-1.356504915E0,2.760425748E0
2.354622292E0,-8.341959447E-1,2.208623160E0,-1.399735719E0,2.744660128E0
2.364575292E0,-6.820665962E-1,2.287757038E0,-1.147865735E0,2.648894647E0
2.374529292E0,-4.008868593E-1,2.323739049E0,-7.332186234E-1,2.469429689E0
2.384482292E0,-1.672520024E-1,2.230249672E0,-4.022649749E-1,2.272400480E0
2.394436292E0,-4.146962285E-2,1.927723505E0,-2.055039755E-1,1.939089870E0
2.404390292E0,-8.085997581E-2,1.592502632E0,-7.499412216E-2,1.596316725E0
2.414343292E0,-7.385618091E-2,1.253037849E0,-1.279182943E-1,1.261713786E0
2.424297292E0,-3.665151715E-2,9.271877235E-1,-3.642474751E-1,9.968433335E-1
2.434250292E0,-5.958780527E-2,6.080993181E-1,-7.670377493E-1,9.806540655E-1
2.444204292E0,7.288320422E-2,2.757523513E-1,-1.189059370E0,1.222789232E0
2.454157292E0,3.398641473E-1,2.597800970E-2,-1.518977988E0,1.556751946E0
2.464111292E0,4.026351768E-1,-6.225588977E-2,-1.661602103E0,1.710822150E0
2.474065292E0,5.805027992E-1,4.837869287E-2,-1.539792906E0,1.646294685E0
2.484018292E0,8.379545349E-1,1.804450750E-1,-1.215616254E0,1.487431042E0
2.493972292E0,1.255891875E0,7.711717308E-2,-1.011454872E0,1.614389178E0
2.503925292E0,1.654174384E0,-2.230011106E-1,-8.484882939E-1,1.872419497E0
2.513879292E0,1.826760217E0,-6.126426047E-1,-9.504029969E-1,2.148406318E0
2.523832292E0,1.982131847E0,-9.402773005E-1,-1.140995257E0,2.472819895E0
2.533786292E0,1.953747123E0,-1.211567057E0,-1.396520920E0,2.689850039E0
2.543740292E0,1.777904976E0,-1.375941644E0,-1.717207954E0,2.828951161E0
2.553693292E0,1.719217642E0,-1.409221657E0,-2.018919604E0,3.002940450E0
2.563647292E0,1.778212540E0,-1.319199679E0,-2.220864891E0,3.136011558E0
2.573600292E0,1.974354465E0,-1.229737279E0,-2.282569388E0,3.258903549E0
2.583554292E0,1.996378587E0,-1.221467562E0,-2.148251828E0,3.176868960E0
2.593507292E0,1.806430033E0,-1.187100552E0,-1.841240262E0,2.839465247E0
2.603461292E0,1.794433885E0,-1.251435712E0,-1.466041975E0,2.633507809E0
2.613415292E0,2.009798532E0,-1.561205994E0,-1.260098362E0,2.839806715E0
2.623368292E0,1.977510207E0,-2.022534353E0,-1.031455858E0,3.010829290E0
2.633322292E0,1.481182755E0,-2.380566384E0,-6.979412019E-1,2.889311437E0
2.643275292E0,8.338877964E-1,-2.610888208E0,-2.336336692E-1,2.750761855E0
2.653229292E0,-3.600130677E-3,-2.347927811E0,2.249435739E-1,2.358681321E0
2.663182292E0,-7.006092864E-1,-1.810365794E0,5.526250656E-1,2.018334002E0
2.673136292E0,-1.085399346E0,-1.151338397E0,6.834845459E-1,1.723607545E0
2.683090292E0,-1.287702482E0,-4.192482859E-1,6.475346947E-1,1.501082273E0
2.693043292E0,-1.321283042E0,1.404273158E-1,4.768252337E-1,1.411690834E0
2.702997292E0,-1.386264904E0,3.824570203E-1,3.072571492E-1,1.470513757E0
2.712950292E0,-1.570462137E0,5.061355716E-1,1.701738560E-1,1.658759682E0
2.722904292E0,-1.817613418E0,6.610704142E-1,-4.786998510E-2,1.934689681E0
2.732857292E0,-1.933432726E0,7.039743590E-1,-4.490778565E-1,2.106042005E0
2.742811292E0,-1.889276893E0,7.265767711E-1,-7.725376403E-1,2.166586113E0
2.752764292E0,-1.922339973E0,8.700317752E-1,-1.006919771E0,2.337997795E0
2.762718292E0,-1.860685762E0,8.691646332E-1,-1.212426597E0,2.384864130E0
2.772672292E0,-1.813701630E0,7.986115444E-1,-1.098873085E0,2.266013252E0
2.782625292E0,-1.752400006E0,6.760275918E-1,-6.822355807E-1,1.998340430E0
2.792579292E0,-1.687953749E0,5.938923383E-1,-8.034308195E-2,1.791187031E0
2.802532292E0,-1.711995746E0,4.837524301E-1,5.228381431E-1,1.854266856E0
2.812486292E0,-1.691777828E0,3.370393574E-1,9.360725677E-1,1.962635881E0
2.822439292E0,-1.635893649E0,3.499973720E-1,1.194501958E0,2.055597509E0
2.832393292E0,-1.599054437E0,4.481539965E-1,1.294264812E0,2.105454464E0
2.842347292E0,-1.404146858E0,5.741398591E-1,1.292635778E0,1.993030916E0
2.852300292E0,-1.225363562E0,7.124563301E-1,1.171301376E0,1.838765019E0
2.862254292E0,-1.085603414E0,8.635495520E-1,9.960427809E-1,1.707733534E0
2.872207292E0,-9.525260478E-1,9.244921571E-1,8.479854333E-1,1.575141554E0
2.882161292E0,-9.902581304E-1,1.044811483E0,7.574471462E-1,1.626643286E0
2.892114292E0,-9.683895439E-1,1.249056480E0,6.611797571E-1,1.713207247E0
2.902068292E0,-8.625566947E-1,1.420372882E0,5.979082425E-1,1.766057032E0
2.912022292E0,-7.447551799E-1,1.569017290E0,4.703780937E-1,1.799369635E0
2.921975292E0,-5.594399589E-1,1.641650818E0,2.882642233E-1,1.758148668E0
2.931929292E0,-3.620689487E-1,1.620286261E0,1.106550113E-1,1.663930895E0
2.941882292E0,-3.582396072E-1,1.530878241E0,6.685234945E-2,1.573655948E0
2.951836292E0,-4.391685802E-1,1.320736327E0,2.500039179E-2,1.392062681E0
2.961789292E0,-3.064818084E-1,9.172913110E-1,8.707673550E-3,9.671764429E-1
2.971743292E0,-2.299394166E-1,4.308240187E-1,5.606774490E-2,4.915537229E-1
2.981697292E0,-1.797860938E-1,-2.907001734E-2,1.134699341E-1,2.145775649E-1
2.991650292E0,-1.762830269E-1,-3.506054825E-1,2.767451720E-1,4.801955853E-1
3.001604292E0,3.237252474E-2,-5.072681773E-1,4.859093948E-1,7.031905318E-1
3.011557292E0,4.783870250E-1,-4.886670148E-1,6.721806356E-1,9.588933225E-1
3.021511292E0,1.011011068E0,-4.620791405E-1,7.639211833E-1,1.348790601E0
3.031464292E0,1.476529541E0,-4.634105515E-1,7.414842474E-1,1.716009241E0
3.041418292E0,1.669672430E0,-5.231579858E-1,6.658797491E-1,1.872136785E0
3.051372292E0,1.621604809E0,-6.314642072E-1,6.653113997E-1,1.863058898E0
3.061325292E0,1.505239370E0,-7.199384272E-1,6.770140902E-1,1.800667925E0
3.071279292E0,1.581174236E0,-8.580344582E-1,6.660890794E-1,1.918335153E0
3.081232292E0,1.669087708E0,-1.123943022E0,5.555194008E-1,2.087511317E0
3.091186292E0,1.669309902E0,-1.463439964E0,3.739844779E-1,2.251247758E0
3.101139292E0,1.496708282E0,-1.774043475E0,2.751886797E-1,2.337326409E0
3.111093292E0,1.207906115E0,-1.947156726E0,2.469956716E-1,2.304661225E0
3.121046292E0,1.028461499E0,-2.074104456E0,2.205559511E-1,2.325572462E0
3.131000292E0,8.004048854E-1,-1.966518611E0,2.228899404E-1,2.134835674E0
3.140954292E0,6.310180646E-1,-1.599516367E0,1.750854441E-1,1.728378233E0
3.150907292E0,7.328876710E-1,-1.027583832E0,6.216883935E-2,1.263692144E0
3.160861292E0,9.414829963E-1,-3.379708189E-1,-1.097646631E-2,1.000367427E0
3.170814292E0,1.179079342E0,2.355556673E-1,-1.442345110E-1,1.210998828E0
3.180768292E0,1.408417080E0,3.972031134E-1,-4.497374225E-1,1.530905854E0
3.190721292E0,1.606454673E0,2.865246767E-1,-8.796984652E-1,1.853823723E0
3.200675292E0,1.832232626E0,2.076328737E-1,-1.199226508E0,2.199620882E0
3.210629292E0,1.948910306E0,1.470054334E-1,-1.402807846E0,2.405770528E0
3.220582292E0,2.026123374E0,6.187231243E-2,-1.524380815E0,2.536284877E0
3.230536292E0,2.091363097E0,-1.533028847E-1,-1.505690775E0,2.581551101E0
3.240489292E0,1.935620170E0,-3.817793280E-1,-1.300782119E0,2.363136690E0
3.250443292E0,1.529512331E0,-3.917271960E-1,-8.911098182E-1,1.812990589E0
3.260396292E0,1.215292318E0,-3.500201762E-1,-4.776170198E-1,1.351875571E0
3.270350292E0,1.014029986E0,-2.785426426E-1,-1.459019908E-1,1.061663886E0
3.280304292E0,8.383767039E-1,-1.546804887E-1,1.438496181E-1,8.645775059E-1
3.290257292E0,6.711954528E-1,-8.241591990E-2,3.951699635E-1,7.832336942E-1
3.300211292E0,5.080248070E-1,-9.384020984E-2,5.604847833E-1,7.622587368E-1
3.310164292E0,2.585609525E-1,-1.628104573E-1,6.376985816E-1,7.071212712E-1
3.320118417E0,2.129029691E-2,-1.665187615E-1,6.147377352E-1,6.372474070E-1
3.330071417E0,-2.511952150E-1,-1.385690707E-1,4.868765974E-1,5.651099402E-1
3.340025417E0,-4.677942091E-1,-6.400654614E-2,2.057260235E-1,5.150256856E-1
3.349979417E0,-5.931093961E-1,-6.261081576E-2,-1.038255000E-1,6.053747636E-1
3.359932417E0,-7.352996475E-1,-1.487642759E-1,-2.914019123E-1,8.048052285E-1
3.369886417E0,-8.213461035E-1,-2.050226766E-1,-2.623072636E-1,8.862555051E-1
3.379839417E0,-7.783673143E-1,-1.936241144E-1,-1.626063895E-1,8.184050413E-1
3.389793417E0,-7.597404242E-1,-3.764437437E-2,-3.849733695E-3,7.606822145E-1
3.399746417E0,-7.383536482E-1,2.817621195E-1,1.657791618E-1,8.074891530E-1
3.409700417E0,-7.416275042E-1,6.977868354E-1,2.594924140E-1,1.050834971E0
3.419654417E0,-6.978698659E-1,1.248113909E0,2.419823420E-1,1.450298636E0
3.429607417E0,-6.815578884E-1,1.797724698E0,1.819232512E-1,1.931173559E0
3.439561417E0,-7.021886194E-1,2.217661201E0,6.086834550E-2,2.326971211E0
3.449514417E0,-6.746254295E-1,2.517686514E0,-8.194163762E-2,2.607792033E0
3.459468417E0,-6.643436855E-1,2.661907504E0,-1.994965462E-1,2.750800422E0
3.469421417E0,-7.110009581E-1,2.654370443E0,-3.863033187E-1,2.774965777E0
3.479375417E0,-8.042377353E-1,2.439073039E0,-6.042384747E-1,2.638366873E0
3.489329417E0,-9.976501805E-1,2.114745528E0,-6.842282387E-1,2.436313365E0
3.499282417E0,-1.267598001E0,1.835354455E0,-6.609259880E-1,2.326403625E0
3.509236417E0,-1.454539917E0,1.577102235E0,-5.786837304E-1,2.222118964E0
3.519189417E0,-1.513650005E0,1.301244634E0,-4.899042126E-1,2.055329675E0
3.529143417E0,-1.437651404E0,1.045516657E0,-3.933527219E-1,1.820624345E0
3.539096417E0,-1.409729195E0,7.994593906E-1,-2.814065357E-1,1.644889467E0
3.549050417E0,-1.461067749E0,6.412886989E-1,-1.777634688E-1,1.605481240E0
3.559003417E0,-1.500086219E0,4.698302096E-1,-8.864028096E-2,1.574438373E0
3.568957417E0,-1.594593596E0,4.015551960E-1,-1.543185461E-1,1.651602109E0
3.578911417E0,-1.670044897E0,3.567883283E-1,-2.906511299E-1,1.732289222E0
3.588864417E0,-1.686928732E0,3.276276791E-1,-5.242215212E-1,1.796629246E0
3.598818417E0,-1.278383775E0,3.948864466E-1,-7.671324742E-1,1.542301078E0
3.608771417E0,-4.118889803E-1,3.492816728E-1,-1.000408312E0,1.136867191E0
3.618725417E0,4.308509159E-1,1.200491846E-2,-1.354491134E0,1.421415795E0
3.628678417E0,9.999533987E-1,-3.639242703E-1,-1.737841609E0,2.037753943E0
3.638632417E0,1.247789973E0,-7.697526115E-1,-2.057430536E0,2.526364841E0
3.648586417E0,1.274438074E0,-1.079853262E0,-2.239901086E0,2.794178295E0
3.658539417E0,1.184740616E0,-1.282531205E0,-2.341076628E0,2.920468524E0
3.668493417E0,1.170190405E0,-1.485458824E0,-2.359880104E0,3.024064749E0
3.678446417E0,1.214826880E0,-1.612535192E0,-2.229880128E0,3.008062413E0
3.688400417E0,1.332051859E0,-1.656507424E0,-1.837676969E0,2.809881784E0
3.698353417E0,1.531774035E0,-1.768458799E0,-1.298497027E0,2.675793854E0
3.708307417E0,1.819614335E0,-2.045846617E0,-8.039675939E-1,2.853567696E0
3.718261417E0,1.932035826E0,-2.468202698E0,-3.349226654E-1,3.152294432E0
3.728214417E0,1.704503124E0,-2.737448852E0,5.473107141E-2,3.225205824E0
3.738168417E0,1.420470530E0,-2.748280234E0,3.330855067E-1,3.111547321E0
3.748121417E0,1.216098064E0,-2.685099900E0,6.064744135E-1,3.009396482E0
3.758075417E0,9.016593647E-1,-2.430531426E0,7.980116200E-1,2.712433440E0
3.768028417E0,6.388995266E-1,-1.941602456E0,8.708562326E-1,2.221801809E0
3.777982417E0,5.236561686E-1,-1.325551509E0,9.484066844E-1,1.711951467E0
3.787936417E0,4.477674955E-1,-4.877776533E-1,9.136590207E-1,1.128359683E0
3.797889417E0,3.695013446E-1,4.158235717E-1,7.572284603E-1,9.395932245E-1
3.807843417E0,4.331512105E-1,1.044783416E0,4.823134303E-1,1.229560329E0
3.817796417E0,6.228155905E-1,1.338682601E0,1.302853386E-1,1.482209377E0
3.827750417E0,6.529527247E-1,1.175110252E0,-1.467580962E-1,1.352319971E0
3.837703417E0,3.089031404E-1,7.727387846E-1,-2.008214521E-1,8.560815586E-1
3.847657417E0,-4.227922833E-1,3.020051801E-1,-1.203380462E-1,5.333307501E-1
3.857610417E0,-1.222581457E0,-1.578619587E-1,-6.674011946E-2,1.234536375E0
3.867564417E0,-1.793822266E0,-4.167778373E-1,1.205695411E-2,1.841642598E0
3.877518417E0,-2.130559323E0,-5.025471354E-1,4.385409455E-3,2.189030809E0
3.887471417E0,-2.429295909E0,-3.716835254E-1,-3.902431726E-2,2.457875130E0
3.897425417E0,-2.687356340E0,-1.283943307E-1,-1.163133985E-1,2.692934832E0
3.907378417E0,-2.616338398E0,7.385559618E-2,-1.664310533E-1,2.622666688E0
3.917332417E0,-2.473853447E0,3.479789132E-1,-7.264581869E-3,2.498217960E0
3.927285417E0,-2.407482871E0,6.666860801E-1,2.043350440E-1,2.506431111E0
3.937239417E0,-2.292100934E0,8.876862735E-1,3.826944172E-1,2.487602989E0
3.947193417E0,-2.215981881E0,9.675247407E-1,5.274293768E-1,2.474845767E0
3.957146417E0,-2.133910362E0,9.605092514E-1,6.491111040E-1,2.428476206E0
3.967100417E0,-2.138772907E0,9.820965868E-1,8.007621503E-1,2.485977328E0
3.977053417E0,-2.127470824E0,1.018356925E0,9.449965882E-1,2.540905642E0
3.987007417E0,-2.073624984E0,1.033411751E0,1.067982244E0,2.551165713E0
3.996960417E0,-2.038724708E0,9.953750288E-1,1.134776158E0,2.536707869E0
4.006914417E0,-2.105377704E0,9.538270533E-1,1.024381896E0,2.528192950E0
4.016868417E0,-2.012525674E0,9.666575986E-1,8.147264707E-1,2.376650105E0
4.026821417E0,-1.754280471E0,1.152224250E0,6.332277274E-1,2.192281471E0
4.036775417E0,-1.467721880E0,1.376040462E0,3.991379571E-1,2.051098725E0
4.046728417E0,-1.143815369E0,1.584674964E0,1.476959896E-1,1.959929194E0
4.056682417E0,-7.627511555E-1,1.728596576E0,-6.688279152E-2,1.890584236E0
4.066635417E0,-4.182881731E-1,1.731728345E0,-2.570038390E-1,1.799971952E0
4.076589417E0,-6.472633839E-2,1.555868071E0,-4.430236495E-1,1.619007384E0
4.086543417E0,3.210817212E-1,1.139196653E0,-5.597481072E-1,1.309267135E0
4.096496417E0,3.555966657E-1,8.456225735E-1,-4.687607539E-1,1.030176281E0
4.106450417E0,2.193565410E-1,7.030709642E-1,-2.168533480E-1,7.677574144E-1
4.116403417E0,2.240518552E-1,3.933568150E-1,2.398106861E-1,5.122870122E-1
4.126357417E0,4.425161111E-1,-3.277481318E-2,7.352078462E-1,8.587346936E-1
4.136310417E0,7.169873375E-1,-5.103970224E-1,1.093245724E0,1.403482161E0
4.146264417E0,8.431345832E-1,-1.048508093E0,1.238099967E0,1.828424643E0
4.156218417E0,8.750159419E-1,-1.512628496E0,1.291543518E0,2.172966297E0
4.166171417E0,9.962971348E-1,-1.815568646E0,1.309414948E0,2.450196930E0
4.176125417E0,1.158942701E0,-2.108287863E0,1.262941278E0,2.717176212E0
4.186078417E0,1.169153693E0,-2.178225240E0,1.084774278E0,2.699689017E0
4.196032417E0,1.244283398E0,-2.176292151E0,8.852766359E-1,2.658609302E0
4.205985417E0,1.417334669E0,-2.083960522E0,7.843993020E-1,2.639509668E0
4.215939417E0,1.649890130E0,-1.835295982E0,8.232470334E-1,2.601573459E0
4.225893417E0,1.953840678E0,-1.521824997E0,8.812011266E-1,2.628680305E0
4.235846417E0,2.256356320E0,-1.235193901E0,9.318941474E-1,2.735922974E0
4.245800417E0,2.465538706E0,-9.568214124E-1,9.422542441E-1,2.807531191E0
4.255753417E0,2.722982548E0,-8.066251534E-1,8.718654621E-1,2.970762104E0
4.265707417E0,3.039335626E0,-8.760573310E-1,7.179152906E-1,3.243522755E0
4.275660417E0,3.128816152E0,-1.003214976E0,4.951457298E-1,3.322815086E0
4.285614417E0,2.778822581E0,-8.373762453E-1,2.542872226E-1,2.913368480E0
4.295567417E0,2.533235722E0,-6.440632027E-1,-2.657205027E-2,2.613963793E0
4.305521417E0,2.502655369E0,-6.189768934E-1,-2.621727777E-1,2.591360812E0
4.315475417E0,2.649565786E0,-6.980441129E-1,-4.948194917E-1,2.784297176E0
4.325429000E0,2.710368057E0,-7.885467321E-1,-5.515316729E-1,2.876123805E0
4.335383000E0,2.183114097E0,-6.965144813E-1,-2.847850935E-1,2.309160482E0
4.345336000E0,1.629260276E0,-5.291817874E-1,2.662436092E-1,1.733611280E0
4.355290000E0,1.335597026E0,-3.329112232E-1,7.872527432E-1,1.585691073E0
4.365243000E0,1.214736248E0,-2.466414034E-2,1.029808112E0,1.592701234E0
4.375197000E0,1.006865392E0,3.523356736E-1,9.618739915E-1,1.436356474E0
4.385151000E0,7.767336023E-1,6.806293505E-1,6.775683331E-1,1.235180249E0
4.395104000E0,5.698392320E-1,9.677644765E-1,2.783625666E-1,1.157052527E0
4.405058000E0,3.436794555E-1,1.100610877E0,-2.028340455E-1,1.170726920E0
4.415011000E0,1.432462585E-1,1.123110963E0,-7.089421535E-1,1.335850554E0
4.424965000E0,3.648604095E-2,1.084228733E0,-1.248875216E0,1.654258892E0
4.434918000E0,3.870272040E-2,9.008337379E-1,-1.699682679E0,1.924037560E0
4.444872000E0,5.768161297E-2,5.699152458E-1,-2.027671716E0,2.107031833E0
4.454826000E0,-1.985696894E-1,3.380444938E-1,-2.183515801E0,2.218433063E0
4.464779000E0,-6.103235990E-1,2.216831481E-1,-2.192787146E0,2.286909220E0
4.474733000E0,-8.765239388E-1,2.522991693E-1,-2.041466467E0,2.235963869E0
4.484686000E0,-1.048514525E0,4.477528775E-1,-1.744857098E0,2.084320426E0
4.494640000E0,-1.187712171E0,6.868665755E-1,-1.369431354E0,1.938501516E0
4.504593000E0,-1.338833460E0,9.566775709E-1,-1.006201733E0,1.928768762E0
4.514547000E0,-1.509646416E0,1.165812594E0,-8.230137295E-1,2.077378855E0
4.524500000E0,-1.667744603E0,1.276035533E0,-7.217317683E-1,2.220480913E0
4.534454000E0,-1.914363202E0,1.351944671E0,-6.470593160E-1,2.431301425E0
4.544408000E0,-2.225702292E0,1.332651199E0,-6.858994460E-1,2.683312870E0
4.554361000E0,-2.557221878E0,1.310800738E0,-7.929590410E-1,2.981000897E0
4.564315000E0,-2.815909131E0,1.357680790E0,-9.445334888E-1,3.265698221E0
4.574268000E0,-2.893036244E0,1.455439804E0,-1.135616988E0,3.431849308E0
4.584222000E0,-2.837157912E0,1.459693068E0,-1.314146515E0,3.450673838E0
4.594175000E0,-2.854938126E0,1.351323697E0,-1.446435091E0,3.474035393E0
4.604129000E0,-2.800398222E0,1.129811872E0,-1.525830925E0,3.383321604E0
4.614083000E0,-2.767615222E0,8.600786448E-1,-1.447458939E0,3.239531860E0
4.624036000E0,-2.749556682E0,6.016931087E-1,-1.301620610E0,3.101018019E0
4.633990000E0,-2.630218518E0,3.823207802E-1,-1.141428536E0,2.892590143E0
4.643943000E0,-2.394082223E0,1.753275919E-1,-9.916556150E-1,2.597258230E0
4.653897000E0,-2.085738076E0,-5.679751396E-2,-9.514191699E-1,2.293191600E0
4.663850000E0,-1.743234496E0,-1.994105190E-1,-1.014957354E0,2.027009988E0
4.673804000E0,-1.411442429E0,-2.760762870E-1,-1.100272323E0,1.810797347E0
4.683758000E0,-1.024377803E0,-2.504233825E-1,-1.201446111E0,1.598603926E0
4.693711000E0,-5.256407136E-1,-2.450796121E-1,-1.281332526E0,1.406476170E0
4.703665000E0,-1.043125731E-1,-3.830937821E-1,-1.307478935E0,1.366434457E0
4.713618000E0,1.889884418E-1,-6.244493026E-1,-1.284950198E0,1.441093534E0
4.723572000E0,3.930971986E-1,-8.449899048E-1,-1.277490320E0,1.581301636E0
4.733525000E0,5.620752990E-1,-1.042336941E0,-1.237816962E0,1.713063272E0
4.743479000E0,7.218662542E-1,-1.093987151E0,-1.135191895E0,1.733943314E0
4.753433000E0,8.774600780E-1,-1.145652564E0,-9.806178260E-1,1.744725568E0
4.763386000E0,1.035943011E0,-1.185823520E0,-7.904359674E-1,1.761858213E0
4.773340000E0,1.160219148E0,-1.186511153E0,-5.808501238E-1,1.758210469E0
4.783293000E0,1.327284624E0,-1.181996518E0,-4.502578247E-1,1.833448213E0
4.793247000E0,1.639019571E0,-1.284067853E0,-4.528768291E-1,2.130800983E0
4.803200000E0,1.831340341E0,-1.506062658E0,-5.141890148E-1,2.426195070E0
4.813154000E0,1.666382201E0,-1.670416195E0,-5.236480190E-1,2.416883769E0
4.823108000E0,1.416171657E0,-1.778269842E0,-3.984824842E-1,2.307937193E0
4.833061000E0,1.291379212E0,-1.782795587E0,-1.811268969E-1,2.208806765E0
4.843015000E0,1.239807354E0,-1.659248598E0,-1.221421223E-2,2.071322614E0
4.852968000E0,1.190593679E0,-1.466640145E0,1.020344979E-1,1.891813327E0
4.862922000E0,1.171973805E0,-1.203042986E0,2.214492595E-1,1.694070483E0
4.872875000E0,1.000526426E0,-9.805137455E-1,3.127821833E-1,1.435372087E0
4.882829000E0,7.534412187E-1,-7.682545549E-1,3.602621591E-1,1.134758809E0
4.892782000E0,5.088264602E-1,-6.089138353E-1,3.983217223E-1,8.878854768E-1
4.902736000E0,3.319476020E-1,-4.655617422E-1,4.288827431E-1,7.147568493E-1
4.912690000E0,1.802866155E-1,-4.640671939E-1,3.758087726E-1,6.237738835E-1
4.922643000E0,-2.457877100E-2,-5.724862665E-1,3.082868439E-1,6.506807354E-1
4.932597000E0,-3.364283234E-1,-6.523136240E-1,2.074785072E-1,7.627217132E-1
4.942550000E0,-6.153598058E-1,-7.028914547E-1,1.321926820E-1,9.435035733E-1
4.952504000E0,-9.431371737E-1,-7.391593945E-1,1.553126093E-1,1.208298947E0
4.962457000E0,-1.262012156E0,-7.134801775E-1,2.448521920E-1,1.470265704E0
4.972411000E0,-1.422348656E0,-6.529609108E-1,3.469825842E-1,1.603069108E0
4.982365000E0,-1.531935418E0,-5.598141807E-1,4.173128575E-1,1.683558155E0
4.992318000E0,-1.602428865E0,-3.894806957E-1,3.884392701E-1,1.694213253E0
5.002272000E0,-1.595670068E0,-9.478804350E-2,3.292098991E-1,1.632031525E0
5.012225000E0,-1.632557813E0,1.470627362E-1,2.470045521E-1,1.657674187E0
5.022179000E0,-1.644884913E0,4.129865026E-1,1.325692427E-1,1.701111058E0
5.032132000E0,-1.615216141E0,6.991626853E-1,9.891566612E-2,1.762820453E0
5.042086000E0,-1.562746151E0,9.343195724E-1,8.480567694E-2,1.822723402E0
5.052040000E0,-1.485354744E0,1.111270936E0,1.460458688E-1,1.860787791E0
5.061993000E0,-1.366618844E0,1.262152489E0,1.878213376E-1,1.869746727E0
5.071947000E0,-1.261395859E0,1.418407633E0,1.635313825E-1,1.905188242E0
5.081900000E0,-1.173338546E0,1.641342670E0,2.494831502E-2,2.017759034E0
5.091854000E0,-1.053473548E0,1.791869296E0,-1.105322929E-1,2.081542572E0
5.101807000E0,-8.612363935E-1,1.912780945E0,-1.908163180E-1,2.106387889E0
5.111761000E0,-6.204322654E-1,1.937788902E0,-1.848375034E-1,2.043068018E0
5.121715000E0,-4.904012990E-1,1.845924466E0,-1.647605038E-1,1.917048928E0
5.131668000E0,-4.271361798E-1,1.776273603E0,-1.559259822E-1,1.833550147E0
5.141622000E0,-3.708462042E-1,1.714639857E0,-1.497395915E-1,1.760664275E0
5.151575000E0,-3.170833951E-1,1.701325747E0,-1.718058139E-1,1.739128636E0
5.161529000E0,-1.612322938E-1,1.674309272E0,-2.293154822E-1,1.697613908E0
5.171482000E0,-1.731068194E-2,1.481237134E0,-2.789689046E-1,1.507377444E0
5.181436000E0,-4.869970500E-2,1.304461772E0,-3.209840727E-1,1.344255538E0
5.191390000E0,-4.279518664E-2,1.121463218E0,-3.737657189E-1,1.182882914E0
5.201343000E0,6.712311208E-2,8.743563759E-1,-4.567055128E-1,9.887287342E-1
5.211297000E0,2.291155440E-1,6.883792502E-1,-5.150940542E-1,8.897650303E-1
5.221250000E0,3.356178993E-1,5.805536699E-1,-6.056843815E-1,9.036235433E-1
5.231204000E0,4.873893982E-1,4.689811939E-1,-6.778226870E-1,9.575674288E-1
5.241157000E0,6.146908844E-1,3.061555338E-1,-6.326190323E-1,9.336931692E-1
5.251111000E0,6.893218213E-1,1.767005181E-1,-4.206896245E-1,8.266603938E-1
5.261064000E0,8.582630843E-1,8.932791352E-3,-2.295002542E-1,8.884625391E-1
5.271018000E0,1.077288088E0,-2.167247093E-1,-4.205668330E-2,1.099676311E0
5.280972000E0,1.306041105E0,-4.664008176E-1,1.172425210E-1,1.391768263E0
5.290925000E0,1.610298632E0,-7.660735434E-1,2.356118006E-1,1.798733799E0
5.300879000E0,1.925563543E0,-1.285030890E0,3.484186238E-1,2.341045682E0
5.310832000E0,2.102416674E0,-1.916408558E0,3.769477737E-1,2.869645841E0
5.320785167E0,2.103890172E0,-2.483632915E0,3.206952202E-1,3.270723427E0
5.330738167E0,2.043341669E0,-2.840248166E0,2.357714295E-1,3.506828052E0
5.340692167E0,1.958994999E0,-2.904982105E0,2.508800683E-1,3.512765755E0
5.350646167E0,1.970837365E0,-2.758647932E0,2.819755429E-1,3.402035940E0
5.360599167E0,2.107520708E0,-2.579009188E0,3.309214157E-1,3.347004768E0
5.370553167E0,2.345823398E0,-2.470250977E0,3.380906868E-1,3.423351080E0
5.380506167E0,2.716157970E0,-2.478734702E0,1.707328498E-1,3.681139708E0
5.390460167E0,2.762087849E0,-2.438094215E0,5.642563105E-4,3.684214028E0
5.400413167E0,2.510042449E0,-2.211840883E0,-1.231470394E-1,3.347793061E0
5.410367167E0,2.422411398E0,-2.134736574E0,-3.019297328E-1,3.242890498E0
5.420321167E0,2.312505963E0,-2.186417189E0,-4.074760866E-1,3.208448334E0
5.430274167E0,1.800989199E0,-1.880932331E0,-2.774585688E-1,2.618864599E0
5.440228167E0,1.278274432E0,-1.125465637E0,3.768531402E-2,1.703548827E0
5.450181167E0,9.687725365E-1,-6.974324942E-2,5.405937982E-1,1.111587155E0
5.460135167E0,9.635802090E-1,9.200839412E-1,9.111751235E-1,1.614088406E0
5.470088167E0,1.269693058E0,1.575703581E0,1.019986544E0,2.266127708E0
5.480042167E0,1.572372422E0,2.036261276E0,8.923365641E-1,2.723046008E0
5.489996167E0,1.706692321E0,2.316887866E0,5.767547339E-1,2.934861852E0
5.499949167E0,1.663851526E0,2.304664847E0,5.970710674E-2,2.843140323E0
5.509903167E0,1.293321657E0,2.073021551E0,-6.590034235E-1,2.530688596E0
5.519856167E0,7.891156662E-1,1.753560678E0,-1.512530848E0,2.446513469E0
5.529810167E0,2.344037658E-1,1.403613008E0,-2.184857737E0,2.607427455E0
5.539763167E0,-4.062066561E-1,1.003485117E0,-2.521263256E0,2.743857619E0
5.549717167E0,-9.089672148E-1,6.764883524E-1,-2.493241645E0,2.738633197E0
5.559671167E0,-1.198120215E0,3.925037062E-1,-2.076815225E0,2.429549894E0
5.569624167E0,-1.448589206E0,2.224438709E-1,-1.501712329E0,2.098340269E0
5.579578167E0,-1.626617042E0,1.882522774E-1,-9.086777776E-1,1.872703186E0
5.589531167E0,-1.782162334E0,2.740701073E-1,-3.089715528E-1,1.829393459E0
5.599485167E0,-1.859226297E0,4.026778615E-1,2.839045393E-1,1.923401589E0
5.609438167E0,-1.944160028E0,6.118853903E-1,7.723996460E-1,2.179624545E0
5.619392167E0,-2.040074830E0,8.858759755E-1,1.141147285E0,2.499779727E0
5.629346167E0,-2.122097232E0,1.094649641E0,1.420550637E0,2.778402169E0
5.639299167E0,-2.161827309E0,1.261579462E0,1.581295273E0,2.960671341E0
5.649253167E0,-2.115096361E0,1.426866215E0,1.499148910E0,2.959227478E0
5.659206167E0,-2.022298710E0,1.593540512E0,1.109460053E0,2.803562920E0
5.669160167E0,-1.917177467E0,1.760326492E0,5.024793077E-1,2.650811998E0
5.679113167E0,-1.744422650E0,1.944724869E0,4.401199222E-2,2.612834142E0
5.689067167E0,-1.613517525E0,1.985343722E0,-2.609413540E-1,2.571598508E0
5.699020167E0,-1.530964195E0,1.980516846E0,-4.068124276E-1,2.536098321E0
5.708974167E0,-1.352950977E0,1.966661283E0,-4.570177907E-1,2.430452265E0
5.718928167E0,-1.224326851E0,1.926127215E0,-4.196879965E-1,2.320577579E0
5.728881167E0,-1.115406087E0,1.842280481E0,-3.099813670E-1,2.175825489E0
5.738835167E0,-8.769373369E-1,1.710048623E0,-1.787511367E-1,1.930087396E0
5.748788167E0,-7.383793759E-1,1.589060376E0,-8.262817383E-2,1.754179123E0
5.758742167E0,-6.099423605E-1,1.499139555E0,-9.715031862E-2,1.621384369E0
5.768695167E0,-3.779283518E-1,1.311751496E0,-2.091250831E-1,1.381034078E0
5.778649167E0,-1.299841887E-1,1.105542419E0,-3.283305144E-1,1.160569195E0
5.788603167E0,8.041324854E-2,9.342611003E-1,-4.451461887E-1,1.038010223E0
5.798556167E0,3.111490560E-1,6.649862945E-1,-5.132212275E-1,8.957770567E-1
5.808510167E0,5.756782615E-1,3.922154385E-1,-5.027207977E-1,8.590498306E-1
5.818463167E0,8.627069682E-1,7.254055738E-2,-3.594815558E-1,9.374179614E-1
5.828417167E0,1.090188800E0,-2.937769783E-1,-2.055658829E-1,1.147638386E0
5.838370167E0,1.277761631E0,-6.609107852E-1,-4.435873210E-2,1.439251732E0
5.848324167E0,1.393616608E0,-1.003286312E0,9.434542755E-2,1.719782467E0
5.858278167E0,1.436698893E0,-1.378256557E0,1.676309202E-1,1.997947690E0
5.868231167E0,1.550338944E0,-1.674994565E0,1.793405177E-1,2.289393076E0
5.878185167E0,1.790196408E0,-1.853593674E0,6.470351597E-2,2.577750809E0
5.888138167E0,2.082378266E0,-2.061680292E0,-8.323277593E-2,2.931510287E0
5.898092167E0,2.385406124E0,-2.418352845E0,-3.376253215E-1,3.413588100E0
5.908045167E0,2.338575774E0,-2.746719028E0,-4.218204761E-1,3.631987690E0
5.917999167E0,2.062909377E0,-2.948121693E0,-3.842235007E-1,3.618652278E0
5.927953167E0,1.906581727E0,-3.156593058E0,-3.427626121E-1,3.703595526E0
5.937906167E0,1.907189253E0,-3.294200846E0,-3.198029717E-1,3.819869631E0
5.947860167E0,1.804074774E0,-3.247602630E0,-3.905706167E-1,3.735525939E0
5.957813167E0,1.612343404E0,-2.955197409E0,-4.482633394E-1,3.396142370E0
5.967767167E0,1.421996654E0,-2.484672550E0,-4.789957201E-1,2.902603842E0
5.977720167E0,1.279849672E0,-1.915577669E0,-4.836132663E-1,2.354003988E0
5.987674167E0,1.262516186E0,-1.393593219E0,-4.490702552E-1,1.933316651E0
5.997628167E0,1.295730125E0,-9.691818416E-1,-3.473357195E-1,1.654953806E0
6.007581167E0,1.163863717E0,-5.931807321E-1,-2.397242204E-1,1.328122673E0
6.017535167E0,8.929604620E-1,-3.446103323E-1,-1.851088873E-1,9.748845921E-1
6.027488167E0,5.665022260E-1,-2.606706280E-1,-8.271182556E-2,6.290589753E-1
6.037442167E0,1.680717820E-1,-2.064517361E-1,2.006881356E-2,2.669704113E-1
6.047395167E0,-2.593626058E-1,-2.066376776E-1,1.231493418E-1,3.537426345E-1
6.057349167E0,-6.113731742E-1,-3.502897328E-1,1.615532694E-1,7.228966136E-1
6.067303167E0,-8.779401344E-1,-3.254039830E-1,8.879998304E-2,9.405062832E-1
6.077256167E0,-1.286093913E0,-1.464639813E-1,-3.361038029E-2,1.294843199E0
6.087210167E0,-1.711480606E0,-1.928821027E-2,-2.212422681E-1,1.725829088E0
6.097163167E0,-1.857535867E0,2.984629369E-1,-3.571123006E-1,1.914953999E0
6.107117167E0,-1.900290123E0,7.087433481E-1,-2.137140145E-1,2.039385536E0
6.117070167E0,-1.934641930E0,1.008207328E0,1.474012168E-1,2.186560892E0
6.127024167E0,-2.032610275E0,1.172471988E0,5.598123900E-1,2.412381604E0
6.136977167E0,-2.200178611E0,1.228656714E0,8.221682221E-1,2.650725151E0
6.146931167E0,-2.376851647E0,1.219613995E0,9.023013890E-1,2.819757055E0
6.156885167E0,-2.563658493E0,1.388601451E0,7.848624015E-1,3.019365471E0
6.166838167E0,-2.801350733E0,1.697427408E0,5.507246840E-1,3.321464047E0
6.176792167E0,-2.934732739E0,1.998613978E0,2.851213449E-1,3.562079205E0
6.186745167E0,-3.012940418E0,2.281789370E0,1.339620495E-1,3.781840626E0
6.196699167E0,-3.044181506E0,2.563433375E0,2.021605011E-1,3.984858916E0
6.206652167E0,-2.959661758E0,2.729540493E0,3.240468442E-1,4.039182514E0
6.216606167E0,-2.692511830E0,2.659002607E0,4.658044016E-1,3.812727181E0
6.226560167E0,-2.437382609E0,2.518313336E0,5.696187919E-1,3.550662136E0
6.236513167E0,-2.345985366E0,2.324219105E0,5.370457077E-1,3.345752513E0
6.246467167E0,-2.105441439E0,1.911195765E0,3.984023774E-1,2.871284966E0
6.256420167E0,-1.863363787E0,1.428812168E0,3.203233739E-1,2.369859886E0
6.266374167E0,-1.622391259E0,1.053657151E0,2.776573924E-1,1.954338869E0
6.276327167E0,-1.438227355E0,6.884786528E-1,2.951399825E-1,1.621606731E0
6.286281167E0,-1.304017383E0,4.417396009E-1,3.576075232E-1,1.422490194E0
6.296235167E0,-1.119192159E0,2.518232059E-1,3.938468117E-1,1.212897905E0
6.306188167E0,-8.072630847E-1,-6.717456758E-2,5.127569586E-1,9.587000620E-1
6.316142167E0,-5.847578180E-1,-2.737192744E-1,7.913972497E-1,1.021358680E0
6.326095042E0,-3.251326722E-1,-3.680260921E-1,1.045490345E0,1.155077712E0
6.336049042E0,2.040912151E-1,-4.712744719E-1,1.201825011E0,1.306956850E0
6.346002042E0,6.850089151E-1,-5.485857725E-1,1.268454033E0,1.542452332E0
6.355956042E0,1.137092825E0,-6.291282445E-1,1.269037585E0,1.816380696E0
6.365910042E0,1.452603904E0,-7.590036750E-1,1.252569487E0,2.062783314E0
6.375863042E0,1.702622074E0,-9.117598450E-1,1.335809280E0,2.348321608E0
6.385817042E0,1.773559325E0,-1.001461980E0,1.521420954E0,2.542274670E0
6.395770042E0,1.803528644E0,-1.145195897E0,1.551579723E0,2.640376649E0
6.405724042E0,1.853229393E0,-1.407063450E0,1.569736497E0,2.806841535E0
6.415677042E0,1.778586177E0,-1.671385079E0,1.591988661E0,2.913987778E0
6.425631042E0,1.787804897E0,-1.936436441E0,1.482493701E0,3.023874999E0
6.435585042E0,1.912664001E0,-2.225128680E0,1.270286551E0,3.197359715E0
6.445538042E0,1.848085597E0,-2.420687054E0,1.143999556E0,3.253287748E0
6.455492042E0,1.721091675E0,-2.365984012E0,1.007168863E0,3.094256941E0
6.465445042E0,1.764672727E0,-2.203222087E0,8.045850599E-1,2.935236705E0
6.475399042E0,1.867942157E0,-1.996759826E0,7.057472348E-1,2.823886836E0
6.485352042E0,1.856004481E0,-1.776367743E0,8.079518867E-1,2.693143376E0
6.495306042E0,1.684592185E0,-1.429451854E0,9.944944382E-1,2.422850103E0
6.505260042E0,1.577408044E0,-1.135664935E0,1.182602874E0,2.275192418E0
6.515213042E0,1.432526320E0,-8.815180457E-1,1.333898410E0,2.146739548E0
6.525167042E0,1.259563926E0,-4.538170248E-1,1.260644492E0,1.838933308E0
6.535120042E0,1.294671779E0,1.758105719E-1,1.024970126E0,1.660616792E0
6.545074042E0,1.367438039E0,7.920620781E-1,7.113757646E-1,1.733004502E0
6.555027042E0,1.520622810E0,1.163235726E0,2.448808068E-1,1.930123751E0
6.564981042E0,1.533513581E0,1.275592899E0,-2.536533844E-1,2.010756372E0
6.574935042E0,1.404240999E0,1.259982587E0,-7.488646030E-1,2.029839180E0
6.584888042E0,1.362801781E0,1.139206594E0,-1.188532535E0,2.137201428E0
6.594842042E0,1.164491708E0,9.207552016E-1,-1.519756252E0,2.124497622E0
6.604795042E0,8.617585498E-1,6.874214762E-1,-1.672931668E0,2.003466109E0
6.614749042E0,5.036592758E-1,5.862324858E-1,-1.612919354E0,1.788532929E0
6.624702042E0,1.315506577E-1,5.334180951E-1,-1.386376001E0,1.491267533E0
6.634656042E0,-9.839986861E-2,5.523712599E-1,-1.058201022E0,1.197742020E0
6.644609042E0,-2.767229891E-1,5.871212626E-1,-5.765220147E-1,8.681385967E-1
6.654563042E0,-5.726833177E-1,6.613978583E-1,-5.657531977E-2,8.767063796E-1
6.664517042E0,-8.716532081E-1,7.880777854E-1,4.296083826E-1,1.251163168E0
6.674470042E0,-1.191062041E0,1.039190555E0,7.864762330E-1,1.765528436E0
6.684424042E0,-1.442738482E0,1.376839192E0,9.533955288E-1,2.210462287E0
6.694377042E0,-1.640149838E0,1.706801664E0,8.697218728E-1,2.521840508E0
6.704331042E0,-1.826396520E0,1.967921358E0,5.369205042E-1,2.738014308E0
6.714284042E0,-1.913181480E0,2.174889404E0,7.241886221E-2,2.897525113E0
6.724238042E0,-1.959948095E0,2.350999353E0,-3.287848796E-1,3.078423946E0
6.734192042E0,-1.823109215E0,2.408935905E0,-5.856992197E-1,3.077294750E0
6.744145042E0,-1.631932161E0,2.394094502E0,-7.385922877E-1,2.990051777E0
6.754099042E0,-1.304199232E0,2.321657440E0,-9.045431384E-1,2.812334830E0
6.764052042E0,-1.027234753E0,2.167551733E0,-1.037596531E0,2.613445678E0
6.774006042E0,-6.688594902E-1,1.966851903E0,-1.153542797E0,2.376245023E0
6.783959042E0,-3.201759875E-1,1.646204045E0,-1.168470812E0,2.043972715E0
6.793913042E0,-3.135025603E-1,1.290675207E0,-1.122407543E0,1.738943656E0
6.803867042E0,-2.935389966E-1,1.011951885E0,-1.144982473E0,1.556019481E0
6.813820042E0,-2.943207693E-1,6.191371071E-1,-1.271312737E0,1.444365448E0
6.823774042E0,-2.692028850E-1,2.326250428E-1,-1.347172612E0,1.393362355E0
6.833727042E0,-1.093248063E-1,-2.227847636E-1,-1.417771456E0,1.439326532E0
6.843681042E0,-2.651466715E-1,-5.588423735E-1,-1.351974638E0,1.486755857E0
6.853634042E0,-3.828902990E-1,-7.917837507E-1,-1.242829195E0,1.522547503E0
6.863588042E0,-2.822842759E-1,-1.009679657E0,-1.107045738E0,1.524692654E0
6.873542042E0,-1.364324981E-1,-1.118782269E0,-9.411204690E-1,1.468330797E0
6.883495042E0,1.108158463E-1,-1.189836465E0,-8.532029039E-1,1.468314053E0
6.893449042E0,2.606776446E-1,-1.217729437E0,-7.904576752E-1,1.475005476E0
6.903402042E0,2.495720279E-1,-1.242028127E0,-8.216546904E-1,1.509978972E0
6.913356042E0,2.210633433E-1,-1.344398839E0,-8.828592508E-1,1.623489359E0
6.923309042E0,2.207464242E-1,-1.494269993E0,-9.211434567E-1,1.769202381E0
6.933263042E0,3.144059551E-1,-1.607191422E0,-9.341108268E-1,1.885332440E0
6.943217042E0,3.593821532E-1,-1.708599683E0,-8.000476936E-1,1.920558440E0
6.953170042E0,3.590301508E-1,-1.792663348E0,-6.706760739E-1,1.947395934E0
6.963124042E0,4.118761164E-1,-1.925906775E0,-6.024930078E-1,2.059552540E0
6.973077042E0,6.574539113E-1,-2.143374081E0,-5.860553151E-1,2.317274029E0
6.983031042E0,8.532175219E-1,-2.257917527E0,-4.621235794E-1,2.457586194E0
6.992984042E0,6.194791692E-1,-2.094777871E0,-2.029381442E-1,2.193862498E0
7.002938042E0,5.313224530E-1,-1.874088165E0,9.747410819E-2,1.950387449E0
7.012892042E0,7.773148155E-1,-1.797818838E0,3.376018596E-1,1.987547714E0
7.022845042E0,9.545930386E-1,-1.800916693E0,5.096298677E-1,2.101016756E0
7.032799042E0,9.555168986E-1,-1.790153723E0,5.735053631E-1,2.108689474E0
7.042752042E0,8.967822021E-1,-1.719275529E0,5.617635693E-1,2.018837530E0
7.052706042E0,8.130839878E-1,-1.537768600E0,4.281307181E-1,1.791405524E0
7.062659042E0,7.064483160E-1,-1.277885592E0,1.817250305E-1,1.471422712E0
7.072613042E0,7.051221675E-1,-8.890486747E-1,-2.504070103E-2,1.135003019E0
7.082567042E0,6.943194366E-1,-4.819549960E-1,-2.343118183E-1,8.770758954E-1
7.092520042E0,5.514906693E-1,-1.186897069E-1,-3.611088359E-1,6.697975785E-1
7.102474042E0,4.045542330E-1,2.014605528E-1,-3.642867976E-1,5.804785549E-1
7.112427042E0,1.726823115E-1,4.764814174E-1,-3.058339369E-1,5.919359077E-1
7.122381042E0,-5.168295443E-2,7.108910304E-1,-1.879289263E-1,7.371258144E-1
7.132334042E0,-7.494551718E-2,9.696192133E-1,-7.085597456E-2,9.750891336E-1
7.142288042E0,-1.007247216E-1,1.166635882E0,-5.705778815E-2,1.172365277E0
7.152242042E0,-2.685976982E-1,1.309635388E0,-1.241100027E-1,1.342643984E0
7.162195042E0,-4.639221829E-1,1.480961146E0,-1.987995581E-1,1.564605692E0
7.172149042E0,-5.325813586E-1,1.607232937E0,-2.455661005E-1,1.710889630E0
7.182102042E0,-5.469076216E-1,1.625295571E0,-3.102094084E-1,1.742677112E0
7.192056042E0,-5.097789717E-1,1.622408216E0,-3.747393169E-1,1.741411087E0
7.202009042E0,-3.848157871E-1,1.606533610E0,-3.146959770E-1,1.681685758E0
7.211963042E0,-4.394825757E-1,1.466196342E0,-2.664874746E-1,1.553670564E0
7.221916042E0,-5.383671784E-1,1.279881831E0,-2.058658634E-1,1.403679976E0
7.231870042E0,-6.879062104E-1,1.066207615E0,1.735334834E-2,1.268981785E0
7.241824042E0,-9.690198737E-1,9.530815333E-1,3.526040608E-1,1.404170057E0
7.251777042E0,-1.117963074E0,8.251719368E-1,6.645454144E-1,1.540250229E0
7.261731042E0,-1.372521608E0,8.311191398E-1,8.457950664E-1,1.813820245E0
7.271684042E0,-1.713479769E0,9.868316621E-1,8.697575408E-1,2.160168472E0
7.281638042E0,-1.865556493E0,1.032835216E0,7.255692959E-1,2.252443210E0
7.291591042E0,-1.911010408E0,1.156010907E0,5.899290955E-1,2.310051587E0
7.301545042E0,-1.877187774E0,1.359630836E0,4.465027428E-1,2.360464922E0
7.311499042E0,-1.690356370E0,1.387722614E0,2.314684635E-1,2.199239951E0
7.321452500E0,-1.536067645E0,1.324978482E0,9.591597140E-2,2.030830289E0
7.331406500E0,-1.467275738E0,1.292807686E0,7.931220870E-2,1.957176597E0
7.341359500E0,-1.365341812E0,1.115845798E0,2.912264228E-2,1.763552731E0
7.351313500E0,-1.217061101E0,8.087459385E-1,-2.174578588E-2,1.461431009E0
7.361266500E0,-1.180341171E0,3.727383631E-1,-1.412102580E-3,1.237796898E0
7.371220500E0,-1.312834400E0,-2.953077793E-2,1.980978191E-2,1.313315901E0
7.381174500E0,-1.316953179E0,-2.530750948E-1,-4.244903147E-2,1.341720760E0
7.391127500E0,-1.160199852E0,-3.933790344E-1,-1.382188225E-1,1.232848411E0
7.401081500E0,-9.934138727E-1,-4.882536167E-1,-1.974025851E-1,1.124380050E0
7.411034500E0,-8.231037766E-1,-6.089734769E-1,-3.517953543E-1,1.082639596E0
7.420988500E0,-6.631368202E-1,-8.027490342E-1,-5.178791195E-1,1.162908095E0
7.430941500E0,-6.090798962E-1,-1.091369353E0,-4.915619713E-1,1.343018450E0
7.440895500E0,-4.160030812E-1,-1.508971063E0,-4.554349494E-1,1.630175827E0
7.450849500E0,7.075130939E-5,-1.819628953E0,-2.563179606E-1,1.837593107E0
7.460802500E0,4.756762558E-1,-2.099642170E0,-4.357929826E-2,2.153291503E0
7.470756500E0,7.238046062E-1,-2.475305310E0,-4.542115977E-3,2.578962993E0
7.480709500E0,1.084844445E0,-2.665688313E0,2.104950857E-1,2.885669738E0
7.490663500E0,1.262840706E0,-2.800702277E0,5.340963721E-1,3.118326286E0
7.500616500E0,1.380304252E0,-2.620293455E0,8.633098161E-1,3.084879488E0
7.510570500E0,1.568890990E0,-2.285182509E0,1.156809636E0,3.003612254E0
7.520524500E0,1.834341717E0,-1.882849048E0,1.106556326E0,2.852086425E0
7.530477500E0,2.463054224E0,-1.599823930E0,7.745724714E-1,3.037438927E0
7.540431500E0,3.167502208E0,-1.571246248E0,2.130070496E-1,3.542210752E0
7.550384500E0,3.412250867E0,-1.658189083E0,-2.708465374E-1,3.803472737E0
7.560338500E0,3.495620468E0,-1.787366940E0,-6.311964047E-1,3.976487387E0
7.570291500E0,3.515786346E0,-2.017355474E0,-8.526994586E-1,4.142170096E0
7.580245500E0,3.111957167E0,-2.153456435E0,-8.097083902E-1,3.870049057E0
7.590199500E0,2.413549942E0,-2.198249030E0,-5.416872275E-1,3.309221536E0
7.600152500E0,1.877392427E0,-1.921184564E0,-3.600481510E-2,2.686419327E0
7.610106500E0,1.614302806E0,-1.318966960E0,5.204758680E-1,2.148614092E0
7.620059500E0,1.609343197E0,-4.887553078E-1,9.767200720E-1,1.944954852E0
7.630013500E0,1.809125892E0,2.880958235E-1,1.245218368E0,2.215063087E0
7.639966500E0,2.063775642E0,1.047257373E0,1.352064539E0,2.680297824E0
7.649920500E0,2.361138133E0,1.556134704E0,1.280644308E0,3.104283870E0
7.659874500E0,2.384224109E0,1.761298884E0,8.973043585E-1,3.097071758E0
7.669827500E0,2.350389196E0,2.039187223E0,3.107561231E-1,3.127168571E0
7.679781500E0,2.001846319E0,2.201432839E0,-2.408958928E-1,2.985251423E0
7.689734500E0,1.530216336E0,2.058927423E0,-8.241849267E-1,2.694443349E0
7.699688500E0,9.961907154E-1,1.834908312E0,-1.236690788E0,2.426662020E0
7.709641500E0,4.401444805E-1,1.651290538E0,-1.422101319E0,2.223254318E0
7.719595500E0,-2.192179620E-2,1.590035691E0,-1.429982196E0,2.138584379E0
7.729549500E0,-3.961927146E-1,1.616941069E0,-1.285451889E0,2.103295901E0
7.739502500E0,-7.087357467E-1,1.729760756E0,-1.067753034E0,2.152783123E0
7.749456500E0,-1.051709443E0,1.895948566E0,-8.486368132E-1,2.328282233E0
7.759409500E0,-1.295764039E0,2.056698464E0,-6.653160775E-1,2.520249690E0
7.769363500E0,-1.597216072E0,2.153059409E0,-4.885804760E-1,2.724972455E0
7.779316500E0,-1.833963402E0,2.222437792E0,-4.367437398E-1,2.914343252E0
7.789270500E0,-1.974318797E0,2.223328907E0,-4.633029628E-1,3.009281605E0
7.799224500E0,-2.161834325E0,2.122621143E0,-5.075523520E-1,3.071914315E0
7.809177500E0,-2.323937269E0,2.001096706E0,-5.077710378E-1,3.108521173E0
7.819131500E0,-2.422783281E0,1.804877597E0,-3.977428114E-1,3.047238309E0
7.829084500E0,-2.542414389E0,1.567151443E0,-2.151470939E-1,2.994348484E0
7.839038500E0,-2.643287630E0,1.293299437E0,-2.544706425E-2,2.942828653E0
7.848991500E0,-2.577259117E0,1.051645709E0,1.958162355E-1,2.790442124E0
7.858945500E0,-2.564523296E0,8.322230941E-1,3.835925496E-1,2.723328526E0
7.868898500E0,-2.427761600E0,6.459898603E-1,4.982693489E-1,2.561171925E0
7.878852500E0,-2.220384250E0,5.372187853E-1,5.829451811E-1,2.357654624E0
7.888806500E0,-2.005430662E0,5.144456345E-1,5.674477208E-1,2.146719210E0
7.898759500E0,-1.632068986E0,5.527437276E-1,3.909214497E-1,1.766916631E0
7.908713500E0,-1.179510866E0,5.523010933E-1,1.878441417E-1,1.315890498E0
7.918666500E0,-7.624067545E-1,5.738720566E-1,1.047934335E-2,9.543076094E-1
7.928620500E0,-4.375933403E-1,4.653331161E-1,-1.925500174E-1,6.671569152E-1
7.938573500E0,-2.071931630E-1,2.593807322E-1,-4.015809238E-1,5.210322537E-1
7.948527500E0,-4.517851174E-2,-1.995596230E-2,-6.537795210E-1,6.556424334E-1
7.958481500E0,-4.042180181E-2,-4.183963466E-1,-8.674133921E-1,9.638959579E-1
7.968434500E0,-1.346789181E-1,-8.518621373E-1,-9.929940426E-1,1.315235599E0
7.978388500E0,-1.679665321E-1,-1.186881866E0,-9.733169925E-1,1.544100803E0
7.988341500E0,-1.136499918E-1,-1.453624828E0,-8.160058415E-1,1.670870131E0
7.998295500E0,6.941522062E-2,-1.700731085E0,-6.352555418E-1,1.816825335E0
8.008249500E0,2.817533487E-1,-1.949228395E0,-4.506870103E-1,2.020394780E0
8.018202500E0,4.510191321E-1,-2.136298950E0,-3.934135330E-1,2.218550353E0
8.028156500E0,5.553281969E-1,-2.249964729E0,-4.154166055E-1,2.354421722E0
8.038109500E0,7.249249327E-1,-2.273186361E0,-4.520248532E-1,2.428419004E0
8.048063500E0,1.081581114E0,-2.318178931E0,-4.385622239E-1,2.595401335E0
8.058016500E0,1.434536592E0,-2.550396423E0,-3.666882491E-1,2.949046867E0
8.067970500E0,1.578222561E0,-2.794917626E0,-1.588840520E-1,3.213657594E0
8.077923500E0,1.506136333E0,-2.994499469E0,1.402162313E-1,3.354867257E0
8.087877500E0,1.408988938E0,-3.207324085E0,3.241287053E-1,3.518129763E0
8.097831500E0,1.360549434E0,-3.291698822E0,4.491304815E-1,3.589999177E0
8.107784500E0,1.356319558E0,-3.185535021E0,5.398798531E-1,3.504098510E0
8.117738500E0,1.426393760E0,-2.937387959E0,5.684850168E-1,3.314516917E0
8.127691500E0,1.514512469E0,-2.429909282E0,5.526712221E-1,2.916102299E0
8.137645500E0,1.742374370E0,-1.651609796E0,5.055713153E-1,2.453423265E0
8.147598500E0,1.987241144E0,-7.274860132E-1,4.896803373E-1,2.172130313E0
8.157552500E0,2.212541379E0,7.809833586E-2,4.158276647E-1,2.252632094E0
8.167506500E0,2.317662038E0,6.600898361E-1,3.025653251E-1,2.428748997E0
8.177459500E0,2.233631117E0,1.014484899E0,1.647196098E-1,2.458743607E0
8.187413500E0,1.827972345E0,1.139707115E0,1.429761171E-2,2.154209745E0
8.197366500E0,1.209260915E0,1.170896164E0,-1.859899896E-1,1.693488135E0
8.207320500E0,5.725821608E-1,1.261475966E0,-5.103952682E-1,1.476372336E0
8.217273500E0,2.368297756E-2,1.381919253E0,-8.236393815E-1,1.608926206E0
8.227227500E0,-3.274464154E-1,1.425016156E0,-1.010605856E0,1.777418464E0
8.237181500E0,-5.789509481E-1,1.413747402E0,-8.892369550E-1,1.767656154E0
8.247134500E0,-7.081650585E-1,1.346739480E0,-5.005584973E-1,1.601800170E0
8.257088500E0,-7.666699594E-1,1.300712537E0,-2.970385551E-2,1.510138487E0
8.267041500E0,-8.515721154E-1,1.296764497E0,4.273759156E-1,1.609168544E0
8.276995500E0,-9.729725915E-1,1.348046333E0,7.623418504E-1,1.828953164E0
8.286948500E0,-1.089052101E0,1.541838262E0,1.047021731E0,2.158600058E0
8.296902500E0,-1.186382514E0,1.742911729E0,1.319197925E0,2.487072160E0
8.306856500E0,-1.246272621E0,1.982659265E0,1.489995679E0,2.775647732E0
8.316809500E0,-1.301635813E0,2.172466902E0,1.557707605E0,2.973267767E0
8.326763625E0,-1.330245654E0,2.230130389E0,1.494466460E0,2.996074941E0
8.336716625E0,-1.337324293E0,2.240001073E0,1.318237227E0,2.922976302E0
8.346670625E0,-1.266212795E0,2.210886617E0,9.938559222E-1,2.734787756E0
8.356623625E0,-1.140254999E0,2.081319335E0,6.501027918E-1,2.460631073E0
8.366577625E0,-1.075682443E0,1.942915741E0,4.020662427E-1,2.256916382E0
8.376531625E0,-9.341424018E-1,1.913310703E0,1.699575090E-1,2.135946026E0
8.386484625E0,-7.792666161E-1,1.963616638E0,-8.491326571E-2,2.114298234E0
8.396438625E0,-7.156641126E-1,2.021267846E0,-2.997528327E-1,2.165075192E0
8.406391625E0,-6.662539709E-1,2.012040939E0,-4.057172441E-1,2.157964221E0
8.416345625E0,-5.882603002E-1,1.894681474E0,-3.866366100E-1,2.021226345E0
8.426298625E0,-5.605047369E-1,1.643803178E0,-2.149085641E-1,1.749982897E0
8.436252625E0,-4.400532639E-1,1.285009840E0,1.307940280E-1,1.364552762E0
8.446206625E0,-4.550537109E-1,9.039690149E-1,4.666662812E-1,1.114455597E0
8.456159625E0,-4.778484964E-1,4.800183982E-1,7.035182762E-1,9.765729942E-1
8.466113625E0,-4.749459386E-1,-3.601767898E-2,9.303282630E-1,1.045170606E0
8.476066625E0,-5.054140252E-1,-5.488974291E-1,1.100150117E0,1.329308844E0
8.486020625E0,-5.747023612E-1,-9.247856873E-1,1.165108005E0,1.594674899E0
8.495973625E0,-5.657537824E-1,-1.204310077E0,1.108964210E0,1.732120586E0
8.505927625E0,-4.410899752E-1,-1.402585652E0,1.055221281E0,1.809778669E0
8.515881625E0,-2.680732030E-1,-1.602165740E0,9.910668004E-1,1.902895610E0
8.525834625E0,-3.029851735E-2,-1.867487828E0,9.443685973E-1,2.092907269E0
8.535788625E0,1.893170553E-1,-2.200799586E0,8.963910234E-1,2.383878485E0
8.545741625E0,3.775161231E-1,-2.534191450E0,8.913425374E-1,2.712772797E0
8.555695625E0,4.382002813E-1,-2.890292730E0,9.144424745E-1,3.063007769E0
8.565648625E0,3.801701742E-1,-3.130211590E0,1.016106917E0,3.312888049E0
8.575602625E0,3.265541303E-1,-3.184728105E0,1.213063432E0,3.423544011E0
8.585556625E0,2.537276441E-1,-3.137733448E0,1.420804406E0,3.453756516E0
8.595509625E0,2.699022120E-1,-2.988155825E0,1.566706470E0,3.384743949E0
8.605463625E0,6.205375153E-1,-2.801405697E0,1.443414420E0,3.211913117E0
8.615416625E0,9.299131107E-1,-2.572643909E0,1.067938975E0,2.936618588E0
8.625370625E0,1.060605982E0,-2.320186281E0,6.185453689E-1,2.625023390E0
8.635323625E0,1.107361488E0,-2.157768171E0,1.600020031E-1,2.430599430E0
8.645277625E0,1.052543841E0,-2.106883362E0,-3.486483828E-1,2.380832151E0
8.655230625E0,8.670982271E-1,-1.986774536E0,-6.889704037E-1,2.274601637E0
8.665184625E0,6.629637426E-1,-1.700943924E0,-7.549246573E-1,1.975510667E0
8.675138625E0,7.403861403E-1,-1.299411532E0,-4.987418040E-1,1.576510499E0
8.685091625E0,1.141233823E0,-7.070815694E-1,1.960805297E-2,1.342670273E0
8.695045625E0,1.570297245E0,-7.461807311E-2,4.494544172E-1,1.635056748E0
8.704998625E0,1.895995343E0,4.521429670E-1,6.508781326E-1,2.054963247E0
8.714952625E0,2.095991753E0,9.777351487E-1,7.406328198E-1,2.428514860E0
8.724906625E0,2.229587182E0,1.308626744E0,6.784524322E-1,2.672800154E0
8.734859625E0,2.228367453E0,1.429738952E0,4.638888538E-1,2.687930030E0
8.744813625E0,1.962544844E0,1.380821730E0,2.058407386E-1,2.408447908E0
8.754766625E0,1.510159217E0,1.193207969E0,-9.998852056E-2,1.927258110E0
8.764720625E0,8.032261670E-1,8.877073234E-1,-3.611275470E-1,1.250443790E0
8.774673625E0,2.525120080E-2,4.865327811E-1,-5.149198437E-1,7.088682640E-1
8.784627625E0,-6.770906156E-1,2.000110281E-1,-4.495292616E-1,8.369782973E-1
8.794580625E0,-1.365837656E0,4.884179235E-2,-3.929994770E-1,1.422092336E0
8.804534625E0,-1.901470091E0,8.557984829E-3,-2.454497043E-1,1.917265580E0
8.814488625E0,-2.286178290E0,1.922277993E-1,-3.388688050E-2,2.294495809E0
8.824441625E0,-2.407604493E0,5.211670089E-1,2.786596235E-1,2.479077577E0
8.834395625E0,-2.277082361E0,1.026892106E0,5.496008492E-1,2.557669363E0
8.844348625E0,-2.089472108E0,1.623549008E0,6.709645609E-1,2.729834887E0
8.854302625E0,-1.910551987E0,2.040348480E0,6.242955208E-1,2.864083747E0
8.864255625E0,-1.784683653E0,2.321607154E0,5.156133235E-1,2.973350403E0
8.874209625E0,-1.738368443E0,2.571908330E0,3.212261474E-1,3.120869035E0
8.884163625E0,-1.759905492E0,2.621364080E0,8.119436346E-2,3.158387168E0
8.894116625E0,-1.768281628E0,2.556790354E0,-8.975125194E-2,3.109992302E0
8.904070625E0,-1.849945596E0,2.434118108E0,-2.059307492E-1,3.064251482E0
8.914023625E0,-1.955022401E0,2.253803426E0,-2.337085684E-1,2.992718190E0
8.923977625E0,-1.989205223E0,2.032454739E0,-1.210268025E-1,2.846481543E0
8.933930625E0,-2.044326341E0,1.819019673E0,9.515645463E-2,2.738093773E0
8.943884625E0,-2.120334297E0,1.571486569E0,3.458861947E-1,2.661770994E0
8.953838625E0,-2.180533136E0,1.323798514E0,5.300185239E-1,2.605395728E0
8.963791625E0,-2.094527026E0,1.162238776E0,5.731464537E-1,2.462993969E0
8.973745625E0,-1.872074969E0,1.153274994E0,5.558094227E-1,2.267957675E0
8.983698625E0,-1.485176404E0,1.125708296E0,3.312506505E-1,1.892800864E0
8.993652625E0,-9.367531836E-1,1.119039547E0,-1.963257473E-2,1.459500419E0
9.003605625E0,-5.076616949E-1,1.075450893E0,-3.859734992E-1,1.250316185E0
9.013559625E0,-1.456178892E-1,8.573550117E-1,-7.200612187E-1,1.129048424E0
9.023513625E0,2.398048389E-1,6.124788827E-1,-9.601022851E-1,1.163801160E0
9.033466625E0,5.581377840E-1,3.307395673E-1,-1.162068622E0,1.330905680E0
9.043420625E0,7.233520317E-1,-9.097682834E-3,-1.303194680E0,1.490515785E0
9.053373625E0,8.203491533E-1,-5.257728606E-1,-1.367709349E0,1.679297085E0
9.063327625E0,8.363635075E-1,-1.073262865E0,-1.239655327E0,1.840690746E0
9.073280625E0,8.624596310E-1,-1.569993775E0,-9.269286919E-1,2.016907005E0
9.083234625E0,9.523909771E-1,-1.960929258E0,-5.746667298E-1,2.254447599E0
9.093188625E0,9.626054782E-1,-2.295163121E0,-3.348583460E-1,2.511277199E0
9.103141625E0,9.269158280E-1,-2.522046783E0,-1.735231411E-1,2.692582999E0
9.113095625E0,9.005425465E-1,-2.598690916E0,2.980208874E-2,2.750465328E0
9.123048625E0,1.089169630E0,-2.710441732E0,2.183607237E-1,2.929243294E0
9.133002625E0,1.306034673E0,-2.983887357E0,3.938438880E-1,3.280918063E0
9.142955625E0,1.282462792E0,-3.149459454E0,5.579366398E-1,3.446026547E0
9.152909625E0,1.045461109E0,-3.176167781E0,6.836248791E-1,3.412971386E0
9.162863625E0,8.124238372E-1,-3.081727062E0,7.369596720E-1,3.271113532E0
9.172816625E0,6.484725881E-1,-2.921223916E0,6.691565287E-1,3.066241401E0
9.182770625E0,6.544653994E-1,-2.628912250E0,5.358481979E-1,2.761636810E0
9.192723625E0,7.245618206E-1,-2.148565239E0,3.721612430E-1,2.297787285E0
9.202677625E0,8.103936839E-1,-1.580395972E0,2.199009168E-1,1.789621682E0
9.212630625E0,9.100781858E-1,-1.073407291E0,1.315898341E-1,1.413421877E0
9.222584625E0,1.045216695E0,-6.679432315E-1,1.014076672E-1,1.244551974E0
9.232538625E0,1.052817491E0,-3.543436074E-1,7.941746771E-2,1.113683615E0
9.242491625E0,8.126893008E-1,-1.876032364E-1,3.073471050E-2,8.346277592E-1
9.252445625E0,4.394042230E-1,-2.356135547E-2,-3.398871342E-2,4.413461694E-1
9.262398625E0,1.492098337E-1,1.742628139E-1,2.292110363E-2,2.305568906E-1
9.272352625E0,-8.915542066E-2,4.758160043E-1,2.884431481E-3,4.841052354E-1
9.282305625E0,-2.136993599E-1,7.410766965E-1,-1.222407393E-1,7.809000479E-1
9.292259625E0,-3.181604522E-1,9.203950131E-1,-3.407020533E-1,1.031712626E0
9.302213625E0,-5.201881850E-1,9.446580344E-1,-5.427748096E-1,1.207302383E0
9.312166625E0,-6.753627634E-1,8.705457455E-1,-6.700301027E-1,1.289536776E0
9.322120000E0,-7.424677491E-1,8.056252795E-1,-6.847685945E-1,1.291974643E0
9.332073000E0,-8.054668200E-1,8.116338784E-1,-6.621071255E-1,1.321329708E0
9.342027000E0,-8.281698042E-1,9.241863477E-1,-5.979625851E-1,1.377514023E0
9.351980000E0,-8.313904506E-1,1.185220672E0,-5.203226709E-1,1.538406255E0
9.361934000E0,-8.217840600E-1,1.401217403E0,-3.890480018E-1,1.670358525E0
9.371888000E0,-8.838686264E-1,1.688378257E0,-1.317950714E-1,1.910291818E0
9.381841000E0,-9.317444587E-1,1.926516640E0,1.594828069E-2,2.140062720E0
9.391795000E0,-1.068542992E0,2.125379274E0,7.581324399E-2,2.380077485E0
9.401748000E0,-1.180748722E0,2.284268589E0,9.643228054E-2,2.573198344E0
9.411702000E0,-1.264538153E0,2.402363634E0,7.236572564E-2,2.715813795E0
9.421655000E0,-1.323525449E0,2.455101426E0,-1.453910172E-2,2.789167262E0
9.431609000E0,-1.348291331E0,2.424473126E0,-9.378115296E-2,2.775743928E0
9.441563000E0,-1.423150309E0,2.307188505E0,-1.500781453E-1,2.714958388E0
9.451516000E0,-1.510850358E0,2.159841009E0,-9.796775937E-2,2.637646616E0
9.461470000E0,-1.555434208E0,1.918166231E0,-4.577204981E-3,2.469566402E0
9.471423000E0,-1.513288062E0,1.582767602E0,1.288866663E-1,2.193582872E0
9.481377000E0,-1.508409730E0,1.257352509E0,3.033149564E-1,1.987016661E0
9.491330000E0,-1.490530699E0,9.523284119E-1,3.681535614E-1,1.806695385E0
9.501284000E0,-1.549489928E0,7.764634609E-1,4.079625750E-1,1.780519027E0
9.511238000E0,-1.653075693E0,5.380391496E-1,5.367287886E-1,1.819401870E0
9.521191000E0,-1.717064112E0,3.077629334E-1,7.097256804E-1,1.883278453E0
9.531145000E0,-1.663644535E0,7.850062430E-2,9.091625118E-1,1.897485694E0
9.541098000E0,-1.334881911E0,-2.729626447E-1,8.180558753E-1,1.589224257E0
9.551052000E0,-8.797270435E-1,-7.510812825E-1,7.545983827E-1,1.381108788E0
9.561006000E0,-4.696050918E-1,-1.307377778E0,9.629463708E-1,1.690275513E0
9.570959000E0,7.737912834E-2,-1.899521799E0,8.692833316E-1,2.090412425E0
9.580913000E0,5.440430707E-1,-2.375506203E0,7.721295047E-1,2.556403050E0
9.590866000E0,9.960579836E-1,-2.687570933E0,8.393432486E-1,2.986581008E0
9.600820000E0,1.322434943E0,-2.998500718E0,8.235697997E-1,3.379069096E0
9.610773000E0,1.540964103E0,-3.268826854E0,8.836639738E-1,3.720303937E0
9.620727000E0,1.645469050E0,-3.247847629E0,1.086004533E0,3.799406330E0
9.630681000E0,1.650653191E0,-2.984368583E0,1.471797974E0,3.714471843E0
9.640634000E0,1.875732402E0,-2.642233962E0,1.700146948E0,3.659272059E0
9.650588000E0,2.327152069E0,-2.384277027E0,1.682412343E0,3.732415435E0
9.660541000E0,2.705784425E0,-2.384117982E0,1.471262369E0,3.894855693E0
9.670495000E0,2.762777236E0,-2.369107595E0,1.161234736E0,3.820219230E0
9.680448000E0,2.609576678E0,-2.230281832E0,6.995024085E-1,3.503334284E0
9.690402000E0,2.320290361E0,-2.138321502E0,3.166291396E-1,3.171185932E0
9.700356000E0,1.945495532E0,-2.217368841E0,3.763739426E-2,2.950100679E0
9.710309000E0,1.291382720E0,-2.275343984E0,-1.203988481E-1,2.619037124E0
9.720263000E0,5.849952149E-1,-2.020239905E0,-1.006715850E-1,2.105640863E0
9.730216000E0,1.410868818E-1,-1.549946596E0,6.576831222E-2,1.557743698E0
9.740170000E0,-6.363173962E-2,-1.076356627E0,2.554262602E-1,1.108077236E0
9.750123000E0,-7.806442201E-2,-5.766448063E-1,4.382897802E-1,7.284992917E-1
9.760077000E0,4.189880848E-2,-4.650641441E-2,6.084928358E-1,6.117040852E-1
9.770031000E0,3.872493982E-2,4.931108987E-1,5.894355905E-1,7.694753373E-1
9.779984000E0,-3.056398094E-2,8.509382772E-1,3.650030450E-1,9.264217892E-1
9.789938000E0,-8.165695131E-2,9.452673143E-1,5.257352192E-2,9.502431944E-1
9.799891000E0,-1.905537415E-1,9.453316337E-1,-4.002243332E-1,1.044098723E0
9.809845000E0,-3.848999870E-1,8.370797914E-1,-9.070832419E-1,1.292923271E0
9.819799000E0,-6.405396706E-1,6.518850231E-1,-1.318033744E0,1.603888432E0
9.829752000E0,-8.605189401E-1,6.156767249E-1,-1.573506782E0,1.896173586E0
9.839706000E0,-1.044917902E0,7.208926928E-1,-1.731630696E0,2.147110748E0
9.849659000E0,-1.124519557E0,8.985761279E-1,-1.823982790E0,2.323552562E0
9.859613000E0,-1.077399770E0,1.261758386E0,-1.723230586E0,2.392143002E0
9.869566000E0,-9.803067541E-1,1.688706871E0,-1.544351395E0,2.489528763E0
9.879520000E0,-9.165253258E-1,2.096984611E0,-1.378075293E0,2.671414353E0
9.889473000E0,-8.833417922E-1,2.471155542E0,-1.258892666E0,2.910620755E0
9.899427000E0,-8.562984198E-1,2.747928817E0,-1.255665003E0,3.140231578E0
9.909381000E0,-8.732208467E-1,2.984865012E0,-1.262685170E0,3.356532083E0
9.919334000E0,-8.822062629E-1,3.070913222E0,-1.254356396E0,3.432521795E0
9.929288000E0,-9.519764096E-1,3.010895646E0,-1.265546798E0,3.401964193E0
9.939241000E0,-1.138073403E0,2.893095886E0,-1.189713088E0,3.328758343E0
9.949195000E0,-1.331722661E0,2.666151997E0,-1.140530988E0,3.191028463E0
9.959148000E0,-1.527746472E0,2.365385258E0,-1.148276210E0,3.040985852E0
9.969102000E0,-1.753389355E0,2.040308719E0,-1.129124240E0,2.917559844E0
9.979056000E0,-1.897391658E0,1.767220359E0,-1.046637568E0,2.796178303E0
9.989009000E0,-1.903615435E0,1.532341799E0,-9.435312760E-1,2.619556142E0
9.998963000E0,-1.916025565E0,1.383002157E0,-8.384673357E-1,2.507364434E0
1.000891600E1,-1.870990310E0,1.322468857E0,-8.235557663E-1,2.434701772E0
1.001887000E1,-1.758912050E0,1.159429189E0,-8.555072916E-1,2.273750288E0
1.002882400E1,-1.663988351E0,9.127673203E-1,-9.157803905E-1,2.107286202E0
1.003877700E1,-1.584418856E0,6.298989075E-1,-1.054893837E0,2.004982980E0
1.004873100E1,-1.516572443E0,3.071571618E-1,-1.188423193E0,1.951073341E0
1.005868400E1,-1.382251375E0,6.787447929E-3,-1.269477296E0,1.876762515E0
1.006863800E1,-1.215435575E0,-2.559618652E-1,-1.213145220E0,1.736237725E0
1.007859100E1,-9.460789078E-1,-6.105645043E-1,-1.162845132E0,1.618660902E0
1.008854500E1,-5.167096764E-1,-9.162165928E-1,-1.201149073E0,1.596621693E0
1.009849900E1,-8.970915198E-2,-1.171861539E0,-1.278125328E0,1.736350066E0
1.010845200E1,2.635854650E-1,-1.394419430E0,-1.368418032E0,1.971408318E0
1.011840600E1,5.912224996E-1,-1.563159549E0,-1.402830065E0,2.181958756E0
1.012835900E1,9.734204882E-1,-1.706052051E0,-1.441588919E0,2.436460478E0
1.013831300E1,1.422304802E0,-1.795352483E0,-1.515916386E0,2.746678717E0
1.014826600E1,1.699242384E0,-1.824026059E0,-1.530471860E0,2.925207660E0
1.015822000E1,1.805215566E0,-1.795064800E0,-1.514059310E0,2.961998729E0
1.016817400E1,2.037750562E0,-1.760077985E0,-1.534018781E0,3.098953934E0
1.017812700E1,2.522469537E0,-2.062597135E0,-1.514676191E0,3.593244143E0
1.018808100E1,2.874302934E0,-2.485531506E0,-1.359406888E0,4.035773942E0
1.019803400E1,2.711271452E0,-2.567482572E0,-9.769089371E-1,3.859703449E0
1.020798800E1,2.437145796E0,-2.503055611E0,-5.203197473E-1,3.532095648E0
1.021794100E1,2.393096382E0,-2.464215481E0,-1.795913815E-1,3.439697850E0
1.022789500E1,2.494595275E0,-2.344478538E0,-5.068366528E-3,3.423391723E0
1.023784900E1,2.517116411E0,-2.132666075E0,5.112865666E-2,3.299508107E0
1.024780200E1,2.461721059E0,-1.853114787E0,1.239633107E-1,3.083743162E0
1.025775600E1,2.367932889E0,-1.401654190E0,1.365114538E-1,2.755063704E0
1.026770900E1,2.437526450E0,-9.454690433E-1,1.382884226E-1,2.618123487E0
1.027766300E1,2.570553530E0,-6.878635257E-1,9.922140241E-2,2.662845577E0
1.028761600E1,2.926540205E0,-4.863620424E-1,2.286237749E-1,2.975475498E0
1.029757000E1,2.080350451E0,3.607147336E-2,6.696079338E-1,2.185757063E0
1.030752400E1,1.289972956E0,-1.309086335E-1,4.031298512E-1,1.357822144E0
1.031747700E1,9.831672120E-1,-9.336483121E-2,4.203561505E-2,9.884845732E-1
1.032743175E1,5.910687178E-1,3.193971384E-1,-1.662801951E-1,6.921169442E-1
1.033738475E1,4.289511555E-1,5.910809970E-1,-2.598356456E-1,7.751712079E-1
1.034733875E1,3.470351726E-1,7.143473196E-1,-1.908747536E-1,8.167978181E-1
1.035729175E1,3.140422583E-1,7.991120660E-1,-1.896480078E-1,8.793002905E-1
1.036724575E1,2.756038320E-1,8.172203082E-1,-1.633858234E-1,8.777821094E-1
1.037719975E1,1.579742253E-1,9.086350930E-1,-2.634345154E-2,9.226416235E-1
1.038715275E1,5.853121340E-2,1.114357681E0,1.409968346E-1,1.124766221E0
1.039710675E1,-6.373932838E-2,1.375347567E0,3.127266347E-1,1.411892907E0
1.040705975E1,-2.070861590E-1,1.755939910E0,3.988654768E-1,1.812540569E0
1.041701375E1,-3.222897559E-1,2.043673207E0,4.485463446E-1,2.116994257E0
1.042696675E1,-4.412262154E-1,2.336575441E0,4.999620813E-1,2.429861611E0
1.043692075E1,-4.406040716E-1,2.558546273E0,4.302521610E-1,2.631616974E0
1.044687475E1,-3.947443593E-1,2.740089455E0,3.307968700E-1,2.788070999E0
1.045682775E1,-4.637976372E-1,2.915859096E0,2.091665983E-1,2.959914388E0
1.046678175E1,-6.206486124E-1,2.983892035E0,7.824743986E-2,3.048760246E0
1.047673475E1,-8.387784076E-1,2.950913154E0,-1.203274938E-1,3.070165527E0
1.048668875E1,-1.082572802E0,2.818691236E0,-3.405248827E-1,3.038575546E0
1.049664175E1,-1.313897424E0,2.645454023E0,-4.548092973E-1,2.988579082E0
1.050659575E1,-1.434201547E0,2.371375730E0,-5.362744600E-1,2.822755254E0
1.051654975E1,-1.522710850E0,1.977846422E0,-5.646439809E-1,2.559169324E0
1.052650275E1,-1.614342567E0,1.472263997E0,-5.089200157E-1,2.243359709E0
1.053645675E1,-1.780507572E0,9.874239850E-1,-4.351492041E-1,2.081962576E0
1.054640975E1,-1.996960385E0,5.597077614E-1,-3.794234848E-1,2.108337198E0
1.055636375E1,-2.169519321E0,1.202082288E-1,-3.006655647E-1,2.193550520E0
1.056631675E1,-2.403601490E0,-3.048644686E-1,-4.291213095E-2,2.423238312E0
1.057627075E1,-1.953599188E0,-2.729211295E-1,-1.919366262E-1,1.981886828E0
1.058622475E1,-1.808774766E0,-2.517863685E-1,-2.327612829E-1,1.840988959E0
1.059617775E1,-1.742759702E0,-4.210544908E-1,7.345037500E-2,1.794406091E0
1.060613175E1,-1.275763053E0,-5.451932180E-1,3.104532373E-1,1.421684995E0
1.061608475E1,-9.696431869E-1,-6.294586122E-1,4.642700922E-1,1.245781993E0
1.062603875E1,-7.057630223E-1,-7.800138903E-1,6.552249527E-1,1.239291270E0
1.063599175E1,-3.284971601E-1,-1.040262934E0,7.576681709E-1,1.328201195E0
1.064594575E1,-1.862279713E-2,-1.494900908E0,7.626078987E-1,1.678286728E0
1.065589975E1,1.400373065E-1,-2.011459726E0,6.499729836E-1,2.118500780E0
1.066585275E1,3.200988042E-1,-2.592059004E0,5.654292619E-1,2.672254362E0
1.067580675E1,2.234852600E-1,-2.968740145E0,5.151782906E-1,3.021385838E0
1.068575975E1,9.577680767E-2,-3.122328959E0,4.104569972E-1,3.150648547E0
1.069571375E1,1.195422310E-1,-3.063041115E0,2.773416245E-1,3.077893695E0
1.070566675E1,6.297100425E-2,-2.902466049E0,1.673929203E-1,2.907970925E0
1.071562075E1,4.555004382E-1,-2.792198671E0,1.088389393E-1,2.831201155E0
1.072557475E1,1.157264550E0,-2.931996242E0,2.199956052E-1,3.159788168E0
1.073552775E1,1.573192787E0,-2.739183136E0,7.660667460E-2,3.159735492E0
1.074548175E1,2.039371410E0,-2.313306447E0,-2.471431676E-1,3.093784448E0
1.075543475E1,2.527547843E0,-2.350312305E0,-5.329913215E-1,3.492355334E0
1.076538875E1,2.301677504E0,-2.458440186E0,-7.136983518E-1,3.442530003E0
1.077534175E1,1.248430243E0,-2.458129115E0,-5.710473398E-1,2.815505617E0
1.078529575E1,1.029215205E-1,-2.041110957E0,-1.258678950E-2,2.043742940E0
1.079524975E1,-2.051747042E-1,-1.239814956E0,5.634587502E-1,1.377215868E0
1.080520275E1,2.357369310E-1,-3.621057862E-1,9.739766315E-1,1.065515359E0
1.081515675E1,4.166415972E-1,2.612851703E-1,1.725853647E0,1.794555926E0
1.082510975E1,1.197091397E0,9.649046034E-1,1.440703651E0,2.107058546E0
1.083506375E1,1.656029998E0,1.514073928E0,9.753436375E-1,2.446661077E0
1.084501675E1,1.919269016E0,1.534090117E0,3.086370190E-1,2.476344655E0
1.085497075E1,1.849950274E0,1.472372755E0,-5.880931429E-1,2.436401259E0
1.086492475E1,1.551363669E0,1.280504560E0,-1.288333397E0,2.388770416E0
1.087487775E1,1.408075310E0,1.016602176E0,-1.743709874E0,2.461032342E0
1.088483175E1,1.181716729E0,6.853597480E-1,-1.758927838E0,2.227105644E0
1.089478475E1,7.818885076E-1,3.779289365E-1,-1.418576617E0,1.663291778E0
1.090473875E1,4.089253190E-1,2.066967344E-1,-8.524305598E-1,9.677713138E-1
1.091469175E1,-5.488196611E-3,2.534656888E-1,-2.233239499E-1,3.378587905E-1
1.092464575E1,-3.274528474E-1,4.522716057E-1,2.450134655E-1,6.097594369E-1
1.093459975E1,-5.474116516E-1,7.065430409E-1,6.379709157E-1,1.098120883E0
1.094455275E1,-7.485576242E-1,1.047295965E0,8.853129617E-1,1.562352840E0
1.095450675E1,-8.161648858E-1,1.538447462E0,8.393654680E-1,1.933256347E0
1.096445975E1,-7.645930284E-1,2.024004343E0,6.510465324E-1,2.259437467E0
1.097441375E1,-7.856582075E-1,2.381417153E0,4.515641292E-1,2.548002481E0
1.098436675E1,-8.387023938E-1,2.658265273E0,2.708501188E-1,2.800563471E0
1.099432075E1,-7.934589779E-1,2.795787107E0,5.649345875E-2,2.906749767E0
1.100427475E1,-7.731913590E-1,2.823895842E0,-8.511327703E-2,2.929070992E0
1.101422775E1,-8.233557916E-1,2.641715899E0,-2.253680634E-1,2.776214763E0
1.102418175E1,-8.999917388E-1,2.321180892E0,-3.307933617E-1,2.511431885E0
1.103413475E1,-1.080826823E0,2.036313316E0,-4.257452003E-1,2.344358658E0
1.104408875E1,-1.428509282E0,1.846078833E0,-4.786144817E-1,2.382796183E0
1.105404175E1,-1.544951320E0,1.626084360E0,-4.396451283E-1,2.285675560E0
1.106399575E1,-1.525942606E0,1.393849912E0,-3.760414553E-1,2.100648850E0
1.107394975E1,-1.398215443E0,1.082559938E0,-3.745585648E-1,1.807549878E0
1.108390275E1,-1.215684666E0,6.362676948E-1,-3.603405118E-1,1.418651145E0
1.109385675E1,-1.088870838E0,3.084523201E-1,-3.112391031E-1,1.173734346E0
1.110380975E1,-9.524857020E-1,3.879803002E-2,-2.899400353E-1,9.963932576E-1
1.111376375E1,-8.403156406E-1,-1.503862935E-1,-2.245623171E-1,8.827086990E-1
1.112371675E1,-7.484512049E-1,-2.102512568E-1,-2.659325373E-1,8.216476809E-1
1.113367075E1,-5.868014199E-1,-2.161674696E-1,-4.013335866E-1,7.430564776E-1
1.114362475E1,-2.511063373E-1,-2.356749505E-1,-4.881547987E-1,5.974045384E-1
1.115357775E1,1.670824331E-1,-2.813703561E-1,-5.742649895E-1,6.609584668E-1
1.116353175E1,5.111624229E-1,-4.284787005E-1,-5.374275309E-1,8.565683687E-1
1.117348475E1,7.279847807E-1,-6.690670663E-1,-4.977693754E-1,1.106971965E0
1.118343875E1,9.141770840E-1,-9.725703031E-1,-5.251536405E-1,1.434363650E0
1.119339175E1,9.988260555E-1,-1.219729185E0,-5.165886390E-1,1.658992645E0
1.120334575E1,1.131376587E0,-1.311577249E0,-5.264792408E-1,1.810366883E0
1.121329975E1,1.162009565E0,-1.381057373E0,-6.918390477E-1,1.932932220E0
1.122325275E1,1.004084457E0,-1.375196709E0,-7.144677722E-1,1.846568651E0
1.123320675E1,7.312217993E-1,-1.311497142E0,-7.067547101E-1,1.659581963E0
1.124315975E1,6.049196023E-1,-1.154704054E0,-7.386202812E-1,1.498275374E0
1.125311375E1,9.234045750E-1,-1.141147869E0,-7.502451307E-1,1.648563685E0
1.126306675E1,1.309300928E0,-1.307633886E0,-7.014138633E-1,1.978928171E0
1.127302075E1,1.231331815E0,-1.446156764E0,-5.319159089E-1,1.972430470E0
1.128297475E1,9.332846153E-1,-1.422605349E0,-3.921300326E-1,1.746021797E0
1.129292775E1,7.740427136E-1,-1.448886244E0,-4.121228689E-1,1.693593437E0
1.130288175E1,7.379963833E-1,-1.464071463E0,-4.990762281E-1,1.713832253E0
1.131283475E1,5.604298925E-1,-1.354546682E0,-5.571046175E-1,1.568197670E0
1.132278875E1,3.884866691E-1,-1.227945108E0,-5.469736952E-1,1.399268131E0
1.133274154E1,2.445445919E-1,-1.225921971E0,-4.897101581E-1,1.342573192E0
1.134269554E1,1.750147659E-1,-1.149878347E0,-4.626322141E-1,1.251750353E0
1.135264954E1,2.850774908E-1,-9.597438508E-1,-3.675717634E-1,1.066530092E0
1.136260254E1,3.342028731E-1,-8.152082813E-1,-2.537505213E-1,9.168671819E-1
1.137255654E1,3.360792446E-1,-7.253886169E-1,-2.233326477E-1,8.300695005E-1
1.138250954E1,1.984971839E-1,-6.774402791E-1,-2.307041594E-1,7.426647110E-1
1.139246354E1,-3.874189675E-2,-5.708589864E-1,-1.855058402E-1,6.014925882E-1
1.140241654E1,-2.123387128E-1,-4.018650985E-1,-1.130599346E-1,4.683650661E-1
1.141237054E1,-2.534557486E-1,-1.556078571E-1,-7.024029929E-2,3.055933921E-1
1.142232454E1,-2.492533547E-1,5.493166745E-2,-1.229897493E-1,2.833217276E-1
1.143227754E1,-2.334454072E-1,3.109829950E-1,-2.312608874E-1,4.524254407E-1
1.144223154E1,-2.271017629E-1,5.713980997E-1,-3.499833387E-1,7.075021812E-1
1.145218454E1,-2.360140890E-1,8.190569186E-1,-4.562588221E-1,9.668138388E-1
1.146213854E1,-3.246619713E-1,1.069793127E0,-5.176557193E-1,1.232002506E0
1.147209154E1,-4.513606095E-1,1.318461760E0,-5.414287440E-1,1.495062841E0
1.148204554E1,-5.517561328E-1,1.593628805E0,-4.997545052E-1,1.758932109E0
1.149199954E1,-6.367530137E-1,1.884092751E0,-4.678444586E-1,2.043070810E0
1.150195254E1,-7.744765770E-1,2.066944540E0,-4.077906668E-1,2.244630689E0
1.151190654E1,-9.999305946E-1,2.191314817E0,-3.067086438E-1,2.428125206E0
1.152185954E1,-1.168494127E0,2.284451022E0,-9.033772767E-2,2.567538881E0
1.153181354E1,-1.374658180E0,2.200133003E0,1.704814378E-1,2.599871971E0
1.154176654E1,-1.609811559E0,2.104620489E0,2.881823806E-1,2.665327324E0
1.155172054E1,-1.763997374E0,1.942575433E0,2.670031625E-1,2.637532319E0
1.156167454E1,-1.809361827E0,1.858351554E0,1.881575342E-1,2.600512252E0
1.157162754E1,-1.847790897E0,1.809660035E0,2.202002029E-2,2.586442639E0
1.158158154E1,-1.864675317E0,1.724746769E0,-1.160994178E-1,2.542684513E0
1.159153454E1,-1.795485799E0,1.593289082E0,-1.876436005E-1,2.407810100E0
1.160148854E1,-1.618271311E0,1.423306430E0,-1.414213516E-1,2.159769253E0
1.161144154E1,-1.475821443E0,1.299189337E0,6.494326552E-2,1.967272095E0
1.162139554E1,-1.157557495E0,1.243529107E0,2.251669192E-1,1.713768986E0
1.163134954E1,-6.844966990E-1,1.184407325E0,2.183701158E-1,1.385294896E0
1.164130254E1,-3.939777893E-1,1.306186700E0,2.005828857E-1,1.378976319E0
1.165125654E1,8.909811795E-2,1.268856906E0,5.361195544E-2,1.273110586E0
1.166120954E1,5.318662441E-1,1.122807493E0,-4.400730531E-2,1.243187440E0
1.167116354E1,8.234446692E-1,1.101583269E0,-1.728729490E-1,1.386157235E0
1.168111654E1,1.317255480E0,8.432427567E-1,-2.713365340E-1,1.587401606E0
1.169107054E1,1.497623956E0,3.221669644E-1,-1.235949727E-1,1.536861993E0
1.170102454E1,1.503742483E0,-3.669297391E-1,1.262928780E-1,1.553006368E0
1.171097754E1,1.438195780E0,-1.300910758E0,4.458548347E-1,1.989864929E0
1.172093154E1,1.197107477E0,-2.100963641E0,9.187589622E-1,2.586741688E0
1.173088454E1,9.611541992E-1,-2.852906803E0,1.291945807E0,3.275975975E0
1.174083854E1,7.090707922E-1,-3.509687700E0,1.615978618E0,3.928368113E0
1.175079154E1,4.180168623E-1,-3.845778054E0,1.919861923E0,4.318635982E0
1.176074554E1,2.358281475E-1,-3.875195981E0,2.172235937E0,4.448749012E0
1.177069954E1,-5.046731830E-2,-3.678518450E0,2.277567680E0,4.326818632E0
1.178065254E1,-2.432874405E-1,-3.276046996E0,2.185347733E0,3.945556667E0
1.179060654E1,2.916006446E-3,-2.759967649E0,1.917120749E0,3.360473462E0
1.180055954E1,6.195224386E-1,-2.305997427E0,1.386677717E0,2.761214819E0
1.181051354E1,9.292085212E-1,-1.918230550E0,6.218080422E-1,2.220288756E0
1.182046654E1,1.094302901E0,-1.748473016E0,-3.364955664E-2,2.062956379E0
1.183042054E1,1.149160309E0,-1.846029716E0,-5.244507321E-1,2.236837879E0
1.184037454E1,1.050747576E0,-2.042489730E0,-7.085773603E-1,2.403729736E0
1.185032754E1,7.732615256E-1,-2.152998013E0,-4.851083994E-1,2.338517477E0
1.186028154E1,2.951463962E-1,-2.011711741E0,-2.287777942E-2,2.033376236E0
1.187023454E1,-6.789085150E-2,-1.589832208E0,4.500450591E-1,1.653697727E0
1.188018854E1,-1.131231576E-1,-8.445420080E-1,7.828778565E-1,1.157128251E0
1.189014154E1,2.185373461E-1,-3.576157093E-2,9.802903088E-1,1.004990821E0
1.190009554E1,7.171861428E-1,7.386553645E-1,8.843445166E-1,1.357215140E0
1.191004954E1,1.231024836E0,1.359502782E0,5.372772574E-1,1.911108792E0
1.192000254E1,1.647837172E0,1.719929248E0,-6.389829956E-2,2.382772955E0
1.192995654E1,1.890229404E0,1.778799600E0,-8.837680542E-1,2.741922900E0
1.193990954E1,1.832346647E0,1.482578486E0,-1.650064377E0,2.877194058E0
1.194986354E1,1.701686520E0,7.286496091E-1,-2.153680383E0,2.839895501E0
1.195981654E1,4.699740511E-1,6.600541681E-1,-2.370697453E0,2.505344992E0
1.196977054E1,-5.033581442E-1,1.115479177E-1,-2.215338103E0,2.274540672E0
1.197972454E1,-8.331896389E-1,-7.955060881E-1,-1.645560851E0,2.008707402E0
1.198967754E1,-1.598293129E0,-8.668479663E-1,-8.626935196E-1,2.012512468E0
1.199963154E1,-1.954541759E0,-7.738690513E-1,-2.989677709E-2,2.102379751E0
1.200958454E1,-1.958628379E0,-5.236772186E-1,6.403075361E-1,2.126136566E0
1.201953854E1,-1.920424426E0,5.279334068E-2,1.096612624E0,2.212097728E0
1.202949154E1,-1.838093875E0,6.649529654E-1,1.231656336E0,2.310352542E0
1.203944554E1,-1.734074832E0,1.176741040E0,1.098296549E0,2.366007251E0
1.204939954E1,-1.777054791E0,1.663508880E0,7.505825150E-1,2.547265128E0
1.205935254E1,-1.779917588E0,1.932566169E0,3.394004631E-1,2.649171812E0
1.206930654E1,-1.862467993E0,2.062431659E0,3.989317697E-2,2.779209032E0
1.207925954E1,-2.015572658E0,2.184286464E0,-2.134537768E-1,2.979799156E0
1.208921354E1,-2.203037315E0,2.241764594E0,-4.493562206E-1,3.175028018E0
1.209916654E1,-2.411965932E0,2.243931572E0,-6.117766321E-1,3.350683393E0
1.210912054E1,-2.617677410E0,2.192033440E0,-6.489275014E-1,3.475392428E0
1.211907454E1,-2.818306489E0,2.116591494E0,-6.171350205E-1,3.578221158E0
1.212902754E1,-2.969333053E0,2.053884784E0,-6.385416770E-1,3.666485641E0
1.213898154E1,-3.092066109E0,1.901447287E0,-7.411182117E-1,3.704811846E0
1.214893454E1,-3.160435848E0,1.717136033E0,-9.466969585E-1,3.719293755E0
1.215888854E1,-3.021370933E0,1.467775090E0,-1.174714980E0,3.558511109E0
1.216884254E1,-2.758813993E0,1.086492190E0,-1.317100528E0,3.244421941E0
1.217879554E1,-2.427828843E0,7.308715510E-1,-1.423639137E0,2.907795472E0
1.218874954E1,-2.038277981E0,4.033105302E-1,-1.517227331E0,2.572783568E0
1.219870254E1,-1.556195515E0,4.013177991E-2,-1.540717351E0,2.190243137E0
1.220865654E1,-1.060759764E0,-2.148191017E-1,-1.457511472E0,1.815405799E0
1.221860954E1,-3.708801180E-1,-4.192313290E-1,-1.225438991E0,1.347222213E0
1.222856354E1,3.641008562E-1,-4.817901045E-1,-9.128825104E-1,1.094552701E0
1.223851754E1,1.164620347E0,-5.064437199E-1,-6.878699577E-1,1.444295978E0
1.224847054E1,1.830590728E0,-6.160065079E-1,-5.735539681E-1,2.014817755E0
1.225842454E1,2.340473195E0,-8.017719644E-1,-5.706987727E-1,2.538966355E0
1.226837754E1,2.596342674E0,-1.156196263E0,-4.918952626E-1,2.884396996E0
1.227833154E1,2.616649470E0,-1.538260936E0,-4.870783263E-1,3.074141579E0
1.228828454E1,2.530613539E0,-1.904394869E0,-4.483130407E-1,3.198704313E0
1.229823854E1,2.372094938E0,-2.101230274E0,-3.357424450E-1,3.186648089E0
1.230819254E1,2.224801821E0,-2.057980759E0,-3.282784742E-1,3.048408552E0
1.231814554E1,2.283742924E0,-2.010972068E0,-3.535641736E-1,3.063412807E0
1.232810004E1,2.576297835E0,-2.127055671E0,-4.502250803E-1,3.371109459E0
1.233805304E1,2.619115241E0,-2.247741033E0,-5.539441609E-1,3.495562691E0
1.234800704E1,2.408940582E0,-2.262695287E0,-6.226506990E-1,3.363105497E0
1.235796004E1,2.144226020E0,-2.184267168E0,-5.891233126E-1,3.117016933E0
1.236791404E1,2.039182545E0,-2.012372476E0,-5.104186936E-1,2.910057676E0
1.237786804E1,1.999889840E0,-1.731157072E0,-3.927908411E-1,2.674088410E0
1.238782104E1,1.936065727E0,-1.391198199E0,-2.837033951E-1,2.400889533E0
1.239777504E1,1.711169534E0,-1.024428674E0,-2.498240429E-1,2.009966999E0
1.240772804E1,1.483314065E0,-5.247449201E-1,-2.967152041E-1,1.601130151E0
1.241768204E1,1.440857432E0,-3.731342196E-2,-3.181475884E-1,1.476035338E0
1.242763504E1,1.435349940E0,3.441589272E-1,-3.423311241E-1,1.515211344E0
1.243758904E1,1.342340620E0,6.291147959E-1,-4.158517114E-1,1.539674125E0
1.244754304E1,1.125042883E0,7.069406515E-1,-4.758336190E-1,1.411348365E0
1.245749604E1,8.181997168E-1,6.051885742E-1,-4.839963321E-1,1.126923439E0
1.246745004E1,4.264836305E-1,4.803551978E-1,-4.132350459E-1,7.638014181E-1
1.247740304E1,1.475837231E-2,3.191287512E-1,-2.963531884E-1,4.357593162E-1
1.248735704E1,-4.068989664E-1,1.812309408E-1,-2.223210063E-1,4.978333583E-1
1.249731004E1,-6.082981235E-1,5.732610226E-2,-1.764572740E-1,6.359638815E-1
1.250726404E1,-6.628128844E-1,-2.270239949E-2,-6.651152987E-2,6.665283958E-1
1.251721804E1,-6.243171555E-1,-9.941552997E-2,4.916686099E-2,6.340920583E-1
1.252717104E1,-4.984622705E-1,-1.299315637E-1,2.101068306E-1,5.563198061E-1
1.253712504E1,-4.497947252E-1,-1.416610783E-1,3.444267297E-1,5.839631222E-1
1.254707804E1,-2.942342305E-1,-9.754442096E-2,4.471161157E-1,5.440602148E-1
1.255703204E1,-2.110330296E-1,1.090435553E-1,6.421862465E-1,6.847106044E-1
1.256698604E1,-1.561458009E-1,3.689131147E-1,7.929403299E-1,8.883877330E-1
1.257693904E1,-8.691242874E-2,6.711334723E-1,9.396218276E-1,1.157956427E0
1.258689304E1,-1.676045895E-2,1.079105403E0,1.036266362E0,1.496194291E0
1.259684604E1,3.377234817E-2,1.425252383E0,1.044013923E0,1.767045557E0
1.260680004E1,8.978282690E-2,1.738498836E0,9.775667489E-1,1.996515942E0
1.261675304E1,2.731936097E-2,2.026463681E0,9.357205653E-1,2.232235287E0
1.262670704E1,-3.739762187E-2,2.225369586E0,8.247193623E-1,2.373569127E0
1.263666104E1,-1.375411302E-1,2.352491562E0,6.661914057E-1,2.448866085E0
1.264661404E1,-3.511925429E-1,2.499790526E0,4.079169667E-1,2.557085280E0
1.265656804E1,-6.265811974E-1,2.515854582E0,9.745728831E-2,2.594537761E0
1.266652104E1,-9.437955701E-1,2.494495872E0,-1.922558659E-1,2.673989913E0
1.267647504E1,-1.203413699E0,2.458693371E0,-4.000828671E-1,2.766485844E0
1.268642804E1,-1.345536123E0,2.359598268E0,-5.206530386E-1,2.765727939E0
1.269638204E1,-1.541442406E0,2.155121722E0,-5.699310333E-1,2.710242740E0
1.270633604E1,-1.683014022E0,1.816270312E0,-6.360226965E-1,2.556540419E0
1.271628904E1,-1.805753510E0,1.349136254E0,-6.182711345E-1,2.337343271E0
1.272624304E1,-1.944163536E0,7.458749217E-1,-5.533015519E-1,2.154586703E0
1.273619604E1,-2.076664367E0,1.085974127E-1,-5.130481499E-1,2.141855899E0
1.274615004E1,-2.202913354E0,-3.296935004E-1,-3.873031926E-1,2.260869039E0
1.275610404E1,-2.343742958E0,-8.088365704E-1,-1.730144334E-1,2.485413778E0
1.276605704E1,-2.365861221E0,-1.254483865E0,8.388648550E-2,2.679191301E0
1.277601104E1,-2.174498225E0,-1.683780007E0,3.877627838E-1,2.777394034E0
1.278596404E1,-2.015820580E0,-1.917379196E0,5.875714982E-1,2.843433814E0
1.279591804E1,-1.728852684E0,-2.138931366E0,5.870616210E-1,2.812223380E0
1.280587104E1,-1.314641190E0,-2.428024725E0,5.204103792E-1,2.809699714E0
1.281582504E1,-8.591623861E-1,-2.777859544E0,3.886807966E-1,2.933553547E0
1.282577904E1,-4.297914004E-1,-3.057649398E0,4.279775941E-1,3.117227183E0
1.283573204E1,8.972669363E-2,-3.357275346E0,5.490184299E-1,3.403053021E0
1.284568604E1,5.695527184E-1,-3.611928020E0,8.654966748E-1,3.757592156E0
1.285563904E1,8.568989289E-1,-3.609640004E0,1.256772466E0,3.917046561E0
1.286559304E1,1.082209105E0,-3.403753694E0,1.594437475E0,3.911386789E0
1.287554604E1,1.195687773E0,-3.018325118E0,1.838835887E0,3.731122243E0
1.288550004E1,1.369896793E0,-2.512043366E0,1.927658601E0,3.450050257E0
1.289545404E1,1.734902213E0,-2.081111759E0,1.740747675E0,3.220421449E0
1.290540704E1,2.281939058E0,-1.904908839E0,1.372541488E0,3.274109602E0
1.291536104E1,2.480846717E0,-1.734606344E0,1.023489611E0,3.195464064E0
1.292531404E1,2.208314427E0,-1.433589928E0,7.087176204E-1,2.726557052E0
1.293526804E1,1.961591747E0,-1.187656623E0,4.081438386E-1,2.329152599E0
1.294522204E1,1.542662719E0,-8.753533262E-1,2.629563411E-1,1.793097250E0
1.295517504E1,8.383474678E-1,-2.997879159E-1,3.563140460E-1,9.589885144E-1
1.296512904E1,2.483406043E-1,4.561266750E-1,6.644201379E-1,8.433141283E-1
1.297508204E1,8.872740448E-2,1.193931270E0,9.627651072E-1,1.536314122E0
1.298503604E1,2.023417282E-1,1.777099230E0,1.043091817E0,2.070522732E0
1.299498904E1,3.563299066E-1,2.155062665E0,8.561165714E-1,2.346103509E0
1.300494304E1,5.896729875E-1,2.297925346E0,5.258201865E-1,2.429951027E0
1.301489704E1,6.949754941E-1,2.220031078E0,1.363956606E-1,2.330264513E0
1.302485004E1,8.171027792E-1,1.956741482E0,-4.046728949E-1,2.158762222E0
1.303480404E1,8.465090114E-1,1.543653238E0,-9.413280451E-1,1.996382056E0
1.304475704E1,8.597775131E-1,1.050992575E0,-1.405022771E0,1.953942617E0
1.305471104E1,6.725771499E-1,5.970486653E-1,-1.581433268E0,1.819274117E0
1.306466404E1,4.465541983E-1,1.787897283E-1,-1.481340630E0,1.557480812E0
1.307461804E1,2.598841774E-1,-1.403156340E-1,-1.113316877E0,1.151825825E0
1.308457204E1,-5.224428713E-2,-2.813557380E-1,-5.862500640E-1,6.523646636E-1
1.309452504E1,-3.387923527E-1,-3.663514495E-1,-6.561043739E-2,5.032875642E-1
1.310447904E1,-5.099959034E-1,-2.815837795E-1,5.021039164E-1,7.690862040E-1
1.311443204E1,-7.704677260E-1,-2.005279219E-1,1.044424982E0,1.313261401E0
1.312438604E1,-1.005033460E0,6.896966279E-2,1.378833092E0,1.707638652E0
1.313434004E1,-1.279009427E0,4.634836417E-1,1.640266782E0,2.130999136E0
1.314429304E1,-1.413899429E0,1.087376289E0,1.806867989E0,2.538950713E0
1.315424704E1,-1.399012418E0,1.701267859E0,1.856327248E0,2.880537958E0
1.316420004E1,-1.264082070E0,2.285268463E0,1.717283968E0,3.125607086E0
1.317415404E1,-1.136053190E0,2.715283227E0,1.368748984E0,3.246052008E0
1.318410704E1,-1.005954396E0,2.870527387E0,9.270748723E-1,3.179833258E0
1.319406104E1,-8.351168811E-1,2.830186862E0,4.670872808E-1,2.987565632E0
1.320401504E1,-7.587966835E-1,2.595338123E0,8.373684246E-2,2.705284502E0
1.321396804E1,-7.685498393E-1,2.295485888E0,-2.291781457E-1,2.431552372E0
1.322392204E1,-8.585624617E-1,2.062803542E0,-4.304696774E-1,2.275432288E0
1.323387504E1,-9.359778428E-1,1.811124762E0,-5.754291701E-1,2.118335704E0
1.324382904E1,-8.852596790E-1,1.567347325E0,-6.154311419E-1,1.902371632E0
1.325378204E1,-7.936583680E-1,1.284957215E0,-5.614251252E-1,1.611274905E0
1.326373604E1,-7.098356080E-1,1.022027807E0,-4.273344004E-1,1.315683138E0
1.327369004E1,-6.975096774E-1,7.119107848E-1,-2.499602465E-1,1.027529484E0
1.328364304E1,-6.352222127E-1,4.229957664E-1,-7.240256310E-2,7.665995102E-1
1.329359704E1,-5.942057490E-1,2.545947862E-1,3.829694191E-2,6.475844602E-1
1.330355004E1,-4.796769208E-1,1.497623956E-1,-4.061359048E-2,5.041509568E-1
1.331350404E1,-2.492247033E-1,-3.786072135E-3,-2.841103431E-1,3.779496979E-1
1.332345804E1,-9.636796117E-3,-1.221933585E-1,-5.424602294E-1,5.561359413E-1
1.333341017E1,2.551333147E-1,-2.139466971E-1,-7.680118954E-1,8.370833107E-1
1.334336417E1,4.733063793E-1,-3.573449832E-1,-1.049831318E0,1.205761237E0
1.335331717E1,6.974190456E-1,-6.056873417E-1,-1.337532454E0,1.625497938E0
1.336327117E1,8.446864343E-1,-8.517258972E-1,-1.658433496E0,2.046786222E0
1.337322417E1,1.069706588E0,-1.067270054E0,-1.912785623E0,2.437639512E0
1.338317817E1,1.190900658E0,-1.298225132E0,-1.987083269E0,2.655585206E0
1.339313217E1,1.212051791E0,-1.472959231E0,-1.846391074E0,2.654776533E0
1.340308517E1,1.221793252E0,-1.488574221E0,-1.623750737E0,2.518967728E0
1.341303917E1,1.285137894E0,-1.431071532E0,-1.324259859E0,2.335210764E0
1.342299217E1,1.437169009E0,-1.386564866E0,-9.946195686E-1,2.230982961E0
1.343294617E1,1.683180667E0,-1.570353963E0,-7.959580779E-1,2.435704824E0
1.344289917E1,1.871633504E0,-1.936037661E0,-6.635426170E-1,2.773363049E0
1.345285317E1,1.635683734E0,-2.174513428E0,-5.448581725E-1,2.775038802E0
1.346280717E1,1.457461771E0,-2.263094067E0,-5.903067891E-1,2.755766985E0
1.347276017E1,1.550593298E0,-2.338213831E0,-8.014474440E-1,2.917859061E0
1.348271417E1,1.520932127E0,-2.291870554E0,-1.021337251E0,2.934115702E0
1.349266717E1,1.242117589E0,-1.961155545E0,-1.072068279E0,2.557013409E0
1.350262117E1,9.730339873E-1,-1.511029283E0,-9.766329485E-1,2.045437985E0
1.351257517E1,7.861142904E-1,-1.039599860E0,-6.999626575E-1,1.479422613E0
1.352252817E1,5.960464525E-1,-5.356733662E-1,-4.015984654E-1,8.963808656E-1
1.353248217E1,3.836212009E-1,-1.690488517E-1,-1.436883080E-1,4.431580643E-1
1.354243517E1,1.610843593E-1,-3.366417468E-2,-6.911408901E-3,1.647094868E-1
1.355238917E1,-1.446764874E-1,-6.187523603E-2,1.357719820E-2,1.579372381E-1
1.356234217E1,-5.293899482E-1,-1.199059278E-1,-1.350414455E-2,5.429673201E-1
1.357229617E1,-8.801860499E-1,-1.637506896E-1,-6.529238541E-2,8.976663447E-1
1.358225017E1,-1.103978873E0,-7.116587698E-2,-1.820378566E-1,1.121147500E0
1.359220317E1,-1.143732339E0,-1.847135425E-2,-3.199362516E-1,1.187781149E0
1.360215717E1,-1.116896542E0,-1.337433636E-2,-4.623369662E-1,1.208880569E0
1.361211017E1,-9.838221002E-1,-3.159893811E-2,-6.039594895E-1,1.154846952E0
1.362206417E1,-8.249953508E-1,-1.213823497E-1,-6.507009619E-1,1.057715815E0
1.363201817E1,-7.329046279E-1,-2.057114786E-1,-5.795292377E-1,9.567238596E-1
1.364197117E1,-6.669439423E-1,-1.549827898E-1,-4.144050372E-1,8.003533108E-1
1.365192517E1,-5.827557313E-1,-5.796461821E-2,-2.315468528E-1,6.297444596E-1
1.366187817E1,-4.628334314E-1,1.576023424E-1,-4.631111741E-2,4.911191333E-1
1.367183217E1,-3.714198160E-1,4.665218550E-1,1.594488931E-1,6.172675841E-1
1.368178517E1,-2.578581172E-1,7.899143958E-1,3.275750542E-1,8.931746623E-1
1.369173917E1,-3.208642048E-1,1.132366521E0,4.766849005E-1,1.269817416E0
1.370169317E1,-4.562523901E-1,1.516998121E0,6.478802651E-1,1.711490105E0
1.371164617E1,-6.634192407E-1,1.899578517E0,7.526746488E-1,2.148265058E0
1.372160017E1,-8.343836403E-1,2.210082040E0,7.107963055E-1,2.466959682E0
1.373155317E1,-9.555087125E-1,2.416416832E0,5.855273116E-1,2.663627121E0
1.374150717E1,-1.194672697E0,2.505530738E0,3.672279471E-1,2.799961338E0
1.375146117E1,-1.375022462E0,2.450783842E0,1.313226163E-2,2.810195842E0
1.376141417E1,-1.587321998E0,2.238339880E0,-3.566813242E-1,2.767124520E0
1.377136817E1,-1.883639592E0,1.940068731E0,-6.204427904E-1,2.774331280E0
1.378132117E1,-2.180437242E0,1.672920558E0,-7.121113443E-1,2.839026651E0
1.379127517E1,-2.371573951E0,1.401318560E0,-6.012539828E-1,2.819496952E0
1.380122817E1,-2.346182417E0,1.129155815E0,-4.261117476E-1,2.638396484E0
1.381118217E1,-2.213826597E0,9.023622000E-1,-2.350270790E-1,2.402191389E0
1.382113617E1,-1.920809172E0,7.635072005E-1,-1.046224755E-1,2.069636921E0
1.383108917E1,-1.691687781E0,5.852671105E-1,-4.486276209E-2,1.790630561E0
1.384104317E1,-1.566688344E0,3.496564794E-1,-2.017232755E-2,1.605359444E0
1.385099617E1,-1.454842803E0,1.121478420E-1,9.171824615E-2,1.462038630E0
1.386095017E1,-1.459294288E0,-1.787716019E-1,2.159891113E-1,1.485984657E0
1.387090317E1,-1.340248486E0,-4.376062042E-1,3.614590842E-1,1.455478568E0
1.388085717E1,-1.139228813E0,-6.658072436E-1,5.184579939E-1,1.417723621E0
1.389081117E1,-8.454120737E-1,-7.843250424E-1,6.748669195E-1,1.336163428E0
1.390076417E1,-4.366256261E-1,-9.170609307E-1,8.190282673E-1,1.304779671E0
1.391071817E1,1.280581158E-1,-1.162914129E0,8.677993083E-1,1.456655001E0
1.392067117E1,5.035844314E-1,-1.476848214E0,8.997496641E-1,1.801173891E0
1.393062517E1,7.840133858E-1,-1.718260453E0,9.118335199E-1,2.097268781E0
1.394057917E1,9.319409251E-1,-2.006223544E0,8.368704611E-1,2.365121343E0
1.395053217E1,9.704220361E-1,-2.335024760E0,7.201647145E-1,2.629200786E0
1.396048617E1,9.491715002E-1,-2.644283996E0,6.575065362E-1,2.885390655E0
1.397043917E1,9.062470901E-1,-2.779246504E0,6.198919827E-1,2.988270568E0
1.398039317E1,9.666897583E-1,-2.605112913E0,6.198235703E-1,2.846977983E0
1.399034617E1,1.098286609E0,-2.141081387E0,5.153800195E-1,2.460910309E0
1.400030017E1,1.386405821E0,-1.566663786E0,3.225072724E-1,2.116735094E0
1.401025417E1,1.595397588E0,-9.256265169E-1,2.012395281E-1,1.855417813E0
1.402020717E1,2.030875990E0,-4.717825949E-1,-2.241448442E-1,2.096968530E0
1.403016117E1,2.675123380E0,-2.658945304E-1,-8.924757278E-1,2.832577965E0
1.404011417E1,2.745646064E0,-1.288170844E-1,-1.389438187E0,3.079887112E0
1.405006817E1,2.421465903E0,-1.262577581E-1,-1.531878700E0,2.868116192E0
1.406002217E1,2.054786425E0,-3.841328323E-1,-1.225164172E0,2.422959457E0
1.406997517E1,1.602589079E0,-6.699961889E-1,-5.738048136E-1,1.829327366E0
1.407992917E1,1.271936050E0,-8.242603558E-1,-2.809470634E-2,1.515920764E0
1.408988217E1,1.181808822E0,-8.559510952E-1,4.423863029E-1,1.524804909E0
1.409983617E1,1.116634587E0,-7.521624327E-1,7.802781844E-1,1.556102558E0
1.410978917E1,8.843796730E-1,-3.923586953E-1,8.879862356E-1,1.313237338E0
1.411974317E1,7.907119560E-1,1.053270650E-1,7.638065779E-1,1.104409198E0
1.412969717E1,8.553049779E-1,5.606684589E-1,5.104572487E-1,1.143005831E0
1.413965017E1,9.829192901E-1,9.810803407E-1,1.810672188E-1,1.400512158E0
1.414960417E1,1.053037931E0,1.229715645E0,-2.201640415E-1,1.633879327E0
1.415955717E1,1.038857263E0,1.288763167E0,-6.101265478E-1,1.764196508E0
1.416951117E1,7.692222691E-1,1.154398245E0,-9.339687395E-1,1.672314508E0
1.417946517E1,2.265527093E-1,7.662360960E-1,-1.162460386E0,1.410587832E0
1.418941817E1,-2.675978243E-1,3.073653227E-1,-1.270094762E0,1.333875085E0
1.419937217E1,-7.532915300E-1,2.660541594E-2,-1.207303852E0,1.423284430E0
1.420932517E1,-1.273451064E0,-7.510865450E-2,-1.073843493E0,1.667470770E0
1.421927917E1,-1.625276860E0,-1.204175591E-2,-8.580204248E-1,1.837897964E0
1.422923317E1,-1.853219453E0,2.749121064E-1,-5.814237356E-1,1.961645372E0
1.423918617E1,-1.893962266E0,7.259815246E-1,-3.570894599E-1,2.059527888E0
1.424914017E1,-1.760974948E0,1.230607930E0,-1.683284748E-1,2.154939238E0
1.425909317E1,-1.552483703E0,1.755737012E0,-3.589604775E-2,2.343951072E0
1.426904717E1,-1.358460224E0,2.178328151E0,-4.459553977E-2,2.567589624E0
1.427900017E1,-1.193743574E0,2.420282426E0,-1.605212724E-1,2.703434450E0
1.428895417E1,-1.092299060E0,2.480933840E0,-2.857709706E-1,2.725768700E0
1.429890817E1,-1.134782006E0,2.405662633E0,-3.986783659E-1,2.689588694E0
1.430886117E1,-1.212314916E0,2.207853082E0,-3.930790722E-1,2.549281044E0
1.431881517E1,-1.263468697E0,2.057307159E0,-3.108157647E-1,2.434229310E0
1.432876875E1,-1.297855003E0,1.923894163E0,-2.131275022E-1,2.330497735E0
1.433872275E1,-1.207389221E0,1.760811810E0,-8.662416101E-2,2.136761734E0
1.434867675E1,-1.030688703E0,1.540488725E0,1.042091230E-2,1.853519169E0
1.435862975E1,-7.800957513E-1,1.279867798E0,4.614857395E-2,1.499580159E0
1.436858375E1,-5.851764786E-1,1.026907893E0,5.550186234E-3,1.181948449E0
1.437853675E1,-3.585003930E-1,7.902114344E-1,-8.798187534E-2,8.721797138E-1
1.438849075E1,-1.227505982E-1,5.224674296E-1,-2.134245408E-1,5.775724708E-1
1.439844375E1,-3.426526845E-2,2.822813523E-1,-3.402448010E-1,4.434223665E-1
1.440839775E1,1.037085557E-1,-5.613911748E-3,-4.165708458E-1,4.293230138E-1
1.441835175E1,2.580329490E-1,-2.708851290E-1,-4.276606750E-1,5.682019085E-1
1.442830475E1,4.611125958E-1,-5.149192590E-1,-3.838767242E-1,7.906503707E-1
1.443825875E1,6.157767123E-1,-7.739988595E-1,-2.604981351E-1,1.022797376E0
1.444821175E1,7.729270649E-1,-1.044112156E0,-1.919675982E-1,1.313178587E0
1.445816575E1,9.108669752E-1,-1.345466541E0,-2.188133347E-1,1.639462758E0
1.446811975E1,8.530216402E-1,-1.582923723E0,-4.156914246E-1,1.845560292E0
1.447807275E1,8.388585144E-1,-1.731254720E0,-6.974956441E-1,2.046320280E0
1.448802675E1,8.146188819E-1,-1.746591967E0,-8.231417835E-1,2.095650213E0
1.449797975E1,9.085853916E-1,-1.613656104E0,-7.639971972E-1,2.003273609E0
1.450793375E1,1.019148638E0,-1.374596785E0,-5.693784714E-1,1.803433423E0
1.451788775E1,1.182515751E0,-1.106714201E0,-4.210316867E-1,1.673447789E0
1.452784075E1,1.556890749E0,-1.011267176E0,-3.259284782E-1,1.884887127E0
1.453779475E1,1.909041651E0,-1.206957697E0,-3.762537092E-1,2.289706042E0
1.454774775E1,1.810679204E0,-1.474384198E0,-4.982476777E-1,2.387596845E0
1.455770175E1,1.351216108E0,-1.746698971E0,-5.587306551E-1,2.277920589E0
1.456765475E1,1.060828761E0,-2.059090560E0,-5.013133729E-1,2.369921242E0
1.457760875E1,9.071054614E-1,-2.329516098E0,-4.367496236E-1,2.537761967E0
1.458756275E1,6.357431996E-1,-2.492742877E0,-3.494817207E-1,2.596165237E0
1.459751575E1,2.760137218E-1,-2.443505228E0,-2.270988758E-1,2.469509116E0
1.460746975E1,-5.414521694E-3,-2.216243836E0,-1.821829041E-1,2.223725853E0
1.461742275E1,-5.765120745E-2,-1.954599062E0,-3.089172103E-1,1.979699724E0
1.462737675E1,4.241745651E-2,-1.626071497E0,-4.064265480E-1,1.676630637E0
1.463733075E1,7.631844342E-2,-1.331158989E0,-3.860144663E-1,1.388097953E0
1.464728375E1,-9.379401684E-2,-1.064652840E0,-2.826380690E-1,1.105516741E0
1.465723775E1,-2.813995922E-1,-9.509736121E-1,-1.885440900E-1,1.009497605E0
1.466719075E1,-4.531831867E-1,-8.157678598E-1,-6.927375454E-2,9.357622854E-1
1.467714475E1,-6.846826404E-1,-6.859818918E-1,1.339714050E-2,9.692992094E-1
1.468709875E1,-9.348727190E-1,-6.464231390E-1,4.844005208E-2,1.137627494E0
1.469705175E1,-1.229669452E0,-6.964881688E-1,3.846846633E-3,1.413222392E0
1.470700575E1,-1.598637530E0,-7.473893505E-1,-1.006130397E-2,1.764747581E0
1.471695875E1,-2.001199617E0,-6.932955891E-1,-5.400375087E-2,2.118578553E0
1.472691275E1,-2.250324333E0,-4.366642177E-1,-8.891045887E-2,2.294022736E0
1.473686575E1,-2.280940354E0,-3.315137386E-2,-5.625134747E-2,2.281874695E0
1.474681975E1,-2.079706088E0,5.475689417E-1,9.191526990E-2,2.152546765E0
1.475677375E1,-1.874788077E0,1.249432456E0,2.395241725E-1,2.265675092E0
1.476672675E1,-1.772302174E0,1.819824834E0,2.712874174E-1,2.554684773E0
1.477668075E1,-1.682360303E0,2.169060899E0,2.069475800E-1,2.752814682E0
1.478663375E1,-1.655982344E0,2.327195338E0,1.456342248E-1,2.859951921E0
1.479658775E1,-1.707974616E0,2.351789312E0,9.544172566E-2,2.908126438E0
1.480654175E1,-1.659980670E0,2.264659367E0,5.659636974E-2,2.808455273E0
1.481649475E1,-1.611349377E0,2.071326444E0,5.683318198E-2,2.624894295E0
1.482644875E1,-1.558145562E0,1.945321285E0,3.785370469E-2,2.492694405E0
1.483640175E1,-1.429675217E0,1.937331650E0,3.368113160E-2,2.407978315E0
1.484635575E1,-1.238933780E0,2.016683044E0,1.959164422E-2,2.366928652E0
1.485630975E1,-1.004095566E0,2.131934588E0,-5.551872790E-2,2.357209223E0
1.486626275E1,-7.703525358E-1,2.136467350E0,-1.251830399E-1,2.274556343E0
1.487621675E1,-5.701929885E-1,2.065264050E0,-1.313307659E-1,2.146551516E0
1.488616975E1,-3.716724157E-1,1.971789876E0,-6.951809507E-2,2.007717228E0
1.489612375E1,-1.977575111E-1,1.857990196E0,7.271069309E-2,1.869899047E0
1.490607675E1,-9.573529243E-2,1.710346831E0,2.978133112E-1,1.738719154E0
1.491603075E1,-8.027759314E-2,1.492437476E0,5.383005202E-1,1.588578472E0
1.492598475E1,1.054539496E-1,1.352141138E0,8.230330253E-1,1.586439268E0
1.493593775E1,3.281545132E-1,1.302015297E0,1.100032003E0,1.735799420E0
1.494589175E1,6.109749788E-1,1.242664889E0,1.294892803E0,1.895851741E0
1.495584475E1,9.070388031E-1,1.115236518E0,1.360599720E0,1.979318943E0
1.496579875E1,1.106978495E0,9.416642600E-1,1.297612343E0,1.948314852E0
1.497575275E1,1.145998719E0,5.644346505E-1,1.156586273E0,1.723250227E0
1.498570575E1,1.230910231E0,1.143300229E-1,7.686773086E-1,1.455704694E0
1.499565975E1,1.451730330E0,-2.525593704E-1,4.971419692E-1,1.555139005E0
1.500561275E1,1.488718062E0,-6.988545370E-1,4.308339590E-1,1.700087360E0
1.501556675E1,1.588353447E0,-1.244822511E0,4.833296764E-1,2.075104174E0
1.502552075E1,1.641389447E0,-1.745271081E0,5.957944375E-1,2.468825931E0
1.503547375E1,1.761084875E0,-2.084356379E0,6.999216539E-1,2.817064389E0
1.504542775E1,1.947927389E0,-2.228846340E0,7.989904439E-1,3.066033733E0
1.505538075E1,2.175108674E0,-2.222650630E0,7.926193178E-1,3.209286362E0
1.506533475E1,2.366872205E0,-2.047894896E0,7.331198055E-1,3.214564074E0
1.507528875E1,2.593515546E0,-1.882216964E0,5.544511145E-1,3.252150000E0
1.508524175E1,2.617485037E0,-1.700087306E0,3.909015691E-1,3.145525203E0
1.509519575E1,2.638635001E0,-1.551430035E0,1.684442496E-1,3.065567367E0
1.510514875E1,2.643749560E0,-1.311669050E0,-3.222810765E-2,2.951427804E0
1.511510275E1,2.649875688E0,-1.080075456E0,-2.395563505E-1,2.871548606E0
1.512505675E1,2.827728692E0,-1.091386895E0,-6.154820126E-1,3.092893955E0
1.513500975E1,2.693859029E0,-1.125598369E0,-9.433383179E-1,3.068181112E0
1.514496375E1,2.233781975E0,-9.892769676E-1,-1.056972522E0,2.661886876E0
1.515491675E1,1.844588962E0,-9.048156917E-1,-9.288419008E-1,2.254760997E0
1.516487075E1,1.511630961E0,-8.070128238E-1,-4.845488209E-1,1.780754172E0
1.517482375E1,9.411701703E-1,-4.329307705E-1,1.515820491E-1,1.046999264E0
1.518477775E1,4.487317014E-1,1.672508329E-1,7.717406648E-1,9.082492140E-1
1.519473175E1,3.421732128E-1,7.325128645E-1,1.237244520E0,1.477982275E0
1.520468475E1,3.656404281E-1,1.227187893E0,1.432291846E0,1.921234754E0
1.521463875E1,3.264769471E-1,1.577371792E0,1.324572101E0,2.085468824E0
1.522459175E1,2.026241487E-1,1.785643181E0,9.169919336E-1,2.017536201E0
1.523454575E1,-5.516731024E-2,1.873437955E0,3.513159192E-1,1.906891732E0
1.524449975E1,-3.058812994E-1,1.763716707E0,-3.186229670E-1,1.818180571E0
1.525445275E1,-5.407814938E-1,1.581290011E0,-9.090455675E-1,1.902442264E0
1.526440675E1,-7.291396058E-1,1.393444700E0,-1.367297705E0,2.083947147E0
1.527435975E1,-7.927134579E-1,1.151594505E0,-1.619199849E0,2.139245820E0
1.528431375E1,-8.272213858E-1,8.393976277E-1,-1.678119902E0,2.050602352E0
1.529426775E1,-9.123574305E-1,4.430230647E-1,-1.503554202E0,1.813653979E0
1.530422075E1,-1.053665922E0,6.423400283E-2,-1.222683198E0,1.615330333E0
1.531417475E1,-1.214046861E0,-1.949315518E-1,-8.864156735E-1,1.515797096E0
1.532412775E1,-1.339453849E0,-3.010982770E-1,-5.015437531E-1,1.461623386E0
1.533408213E1,-1.403828770E0,-2.340774912E-1,-1.202830732E-1,1.428284112E0
1.534403612E1,-1.419953637E0,4.086619020E-3,1.923207518E-1,1.432924388E0
1.535398912E1,-1.341424361E0,3.622122055E-1,4.563424373E-1,1.462486040E0
1.536394312E1,-1.277495583E0,7.991693687E-1,6.436696851E-1,1.638590036E0
1.537389612E1,-1.197759442E0,1.214942654E0,7.776188707E-1,1.874941184E0
1.538385012E1,-1.175525989E0,1.562263171E0,8.411476994E-1,2.128393060E0
1.539380413E1,-1.214201227E0,1.829809540E0,7.762669945E-1,2.329179688E0
1.540375713E1,-1.233014059E0,1.951763747E0,6.191452932E-1,2.390197960E0
1.541371113E1,-1.243094074E0,1.937074372E0,4.125117087E-1,2.338312620E0
1.542366413E1,-1.269566758E0,1.948182912E0,2.615424113E-1,2.340004454E0
1.543361812E1,-1.293885913E0,1.879051282E0,1.330744421E-1,2.285319077E0
1.544357212E1,-1.333740535E0,1.708127228E0,-2.245915532E-2,2.167271754E0
1.545352512E1,-1.277265202E0,1.519883137E0,-1.787880107E-1,1.993342996E0
1.546347912E1,-1.124143581E0,1.249243591E0,-3.368463628E-1,1.713993528E0
1.547343212E1,-9.337740272E-1,9.667102236E-1,-4.374150002E-1,1.413433576E0
1.548338613E1,-8.373329759E-1,7.391652417E-1,-5.479647982E-1,1.244088898E0
1.549333913E1,-7.128931171E-1,5.785714638E-1,-7.041801810E-1,1.157078762E0
1.550329313E1,-5.830311352E-1,4.668171394E-1,-8.293468487E-1,1.116091278E0
1.551324712E1,-4.257036120E-1,3.840889782E-1,-8.799322808E-1,1.050251745E0
1.552320012E1,-1.141610384E-1,2.755886292E-1,-8.161052442E-1,8.689128868E-1
1.553315412E1,1.949110866E-1,1.025543153E-1,-7.140070117E-1,7.472039427E-1
1.554310712E1,4.547800612E-1,-1.681928194E-1,-6.375125670E-1,8.009594258E-1
1.555306112E1,6.692079842E-1,-4.920560610E-1,-6.106843722E-1,1.030967456E0
1.556301513E1,7.807751977E-1,-9.103676230E-1,-6.088436687E-1,1.345016629E0
1.557296813E1,8.623783547E-1,-1.342289749E0,-6.579602802E-1,1.725789653E0
1.558292213E1,8.576888877E-1,-1.634707834E0,-7.239999032E-1,1.982946240E0
1.559287512E1,9.084088057E-1,-1.830055123E0,-8.011960137E-1,2.194589566E0
1.560282912E1,1.056876043E0,-1.890336408E0,-8.407652915E-1,2.323197146E0
1.561278312E1,1.260883643E0,-1.930244824E0,-8.248140872E-1,2.448671256E0
1.562273612E1,1.556400753E0,-2.101353650E0,-7.641141415E-1,2.724323932E0
1.563269012E1,1.873867140E0,-2.440023796E0,-6.919103837E-1,3.153384557E0
1.564264313E1,1.940127788E0,-2.800925640E0,-5.822528708E-1,3.456631118E0
1.565259713E1,1.807225839E0,-3.144961191E0,-4.427687109E-1,3.654160678E0
1.566255113E1,1.682368489E0,-3.408601620E0,-3.710070026E-1,3.819237481E0
1.567250412E1,1.636234542E0,-3.454305212E0,-1.935019076E-1,3.827130905E0
1.568245812E1,1.554727864E0,-3.138235139E0,3.112239917E-2,3.502380208E0
1.569241112E1,1.393907799E0,-2.530844504E0,7.916896105E-2,2.890401456E0
1.570236512E1,1.397859932E0,-1.718603684E0,-8.922851086E-2,2.217109095E0
1.571231912E1,1.421131850E0,-8.138096273E-1,-2.566576838E-1,1.657641400E0
1.572227213E1,1.291131874E0,-9.269649446E-2,-3.504528701E-1,1.341056066E0
1.573222613E1,1.053887531E0,3.547616833E-1,-4.335967684E-1,1.193541343E0
1.574217913E1,7.145040250E-1,5.944355446E-1,-4.198862171E-1,1.019889236E0
1.575213313E1,2.563787717E-1,7.487640309E-1,-3.152385986E-1,8.519113936E-1
1.576208712E1,-1.923926908E-1,8.031647712E-1,-1.389648815E-2,8.260034561E-1
1.577204012E1,-6.952965063E-1,9.114476037E-1,3.050714600E-1,1.186272549E0
1.578199412E1,-1.043310503E0,1.134382641E0,4.571318114E-1,1.607572790E0
1.579194712E1,-1.218746853E0,1.309721342E0,4.279343247E-1,1.839522131E0
1.580190112E1,-1.299967602E0,1.466558869E0,2.680515683E-1,1.978019799E0
1.581185513E1,-1.357490755E0,1.503564143E0,4.696600556E-2,2.026250746E0
1.582180813E1,-1.329771445E0,1.379198543E0,-1.340240482E-1,1.920532000E0
1.583176213E1,-1.337190392E0,1.154022269E0,-1.775296350E-1,1.775207681E0
1.584171512E1,-1.523796093E0,1.076053741E0,5.982288161E-2,1.866393572E0
1.585166912E1,-1.856071140E0,1.070930411E0,5.009157622E-1,2.200638230E0
1.586162312E1,-2.012261379E0,1.056757929E0,1.037172096E0,2.498331270E0
1.587157612E1,-2.034445131E0,1.081952997E0,1.645357368E0,2.831393676E0
1.588153012E1,-1.911059525E0,1.306763821E0,2.124781104E0,3.142367727E0
1.589148313E1,-1.824060557E0,1.500510142E0,2.476170698E0,3.422009487E0
1.590143713E1,-1.763498021E0,1.629009722E0,2.655605375E0,3.579921487E0
1.591139113E1,-1.830386075E0,1.724232214E0,2.709879230E0,3.696854792E0
1.592134412E1,-1.807455634E0,1.759256451E0,2.623874874E0,3.639587681E0
1.593129812E1,-1.761926875E0,1.739354868E0,2.340189021E0,3.406791206E0
1.594125112E1,-1.758023273E0,1.769921188E0,1.871091467E0,3.118372992E0
1.595120512E1,-1.683659554E0,1.854119924E0,1.355873415E0,2.847957673E0
1.596115912E1,-1.490662846E0,1.985493996E0,9.322087276E-1,2.652032285E0
1.597111213E1,-1.220333787E0,2.044283656E0,5.680570006E-1,2.447651726E0
1.598106613E1,-9.226046759E-1,1.923029945E0,2.917257750E-1,2.152753466E0
1.599101913E1,-7.561408782E-1,1.751587243E0,9.139431953E-2,1.910015659E0
1.600097312E1,-6.271109551E-1,1.521505154E0,-6.666640799E-2,1.647024740E0
1.601092712E1,-4.993551403E-1,1.246894764E0,-2.165796618E-1,1.360517864E0
1.602088012E1,-3.718197656E-1,8.916834301E-1,-3.360137558E-1,1.022865838E0
1.603083412E1,-2.158090353E-1,4.842377490E-1,-3.908770474E-1,6.586688116E-1
1.604078712E1,-2.214457512E-2,1.240621287E-1,-5.004877825E-1,5.161102735E-1
1.605074113E1,2.421600974E-1,-2.503766048E-1,-6.703762579E-1,7.554695786E-1
1.606069513E1,5.321258605E-1,-6.449034476E-1,-8.201538563E-1,1.171200553E0
1.607064813E1,9.030732214E-1,-1.085525061E0,-9.705477512E-1,1.713437725E0
1.608060212E1,1.289009335E0,-1.582833676E0,-9.857680535E-1,2.266858215E0
1.609055512E1,1.560453458E0,-2.133220975E0,-7.705987036E-1,2.753083560E0
1.610050912E1,1.758835452E0,-2.617174550E0,-2.996498851E-1,3.167474518E0
1.611046312E1,1.806064582E0,-2.997180417E0,2.390751795E-1,3.507437336E0
1.612041612E1,1.725881129E0,-3.282165522E0,8.187272087E-1,3.797576915E0
1.613037012E1,1.590207015E0,-3.404773448E0,1.453258792E0,4.029044763E0
1.614032313E1,1.511453791E0,-3.332622315E0,2.080224152E0,4.209298823E0
1.615027713E1,1.307844386E0,-3.106363721E0,2.445415514E0,4.164133708E0
1.616023113E1,1.439838848E0,-2.945193408E0,2.330661567E0,4.022348003E0
1.617018412E1,1.796982102E0,-2.788945865E0,1.905869536E0,3.826186405E0
1.618013812E1,1.771159043E0,-2.371257032E0,1.391093534E0,3.270321924E0
1.619009112E1,1.659970145E0,-1.902947098E0,9.101588774E-1,2.684231309E0
1.620004512E1,1.611376859E0,-1.685595567E0,5.478431761E-1,2.395391397E0
1.620999912E1,1.462704969E0,-1.547039945E0,4.578862484E-1,2.177727769E0
1.621995213E1,1.128520222E0,-1.272707883E0,5.772920930E-1,1.796276540E0
1.622990613E1,9.171913236E-1,-9.632568580E-1,8.049476603E-1,1.554684674E0
1.623985913E1,1.026227862E0,-7.156079793E-1,1.043726898E0,1.629295628E0
1.624981312E1,1.244550031E0,-4.993668348E-1,1.253674757E0,1.835748461E0
1.625976712E1,1.255347499E0,-2.257235742E-1,1.273011353E0,1.802056154E0
1.626972012E1,1.194258714E0,1.359179431E-1,1.230041335E0,1.719805003E0
