"Time (s)","Linear Acceleration x (m/s^2)","Linear Acceleration y (m/s^2)","Linear Acceleration z (m/s^2)","Absolute acceleration (m/s^2)"
3.309287000E-3,0.000000000E0,0.000000000E0,0.000000000E0,0.000000000E0
8.255277000E-3,-1.426029205E-1,-2.344703674E-2,1.090764999E-1,1.810608719E-1
1.320137000E-2,-2.246101052E-1,-7.966399193E-2,1.864871979E-1,3.026111794E-1
1.814736000E-2,-3.289958239E-1,-1.372036934E-1,4.207096100E-1,5.514160693E-1
2.309334900E-2,-2.296169698E-1,-9.909009933E-2,4.068088531E-1,4.775314059E-1
2.803933900E-2,-1.737342328E-1,-9.834170341E-2,3.108663559E-1,3.694490026E-1
3.298532900E-2,-1.253816634E-1,-6.892061234E-2,1.599597931E-1,2.146106888E-1
3.793131800E-2,-7.295648754E-2,-3.135609627E-2,-4.584121704E-2,9.169117202E-2
4.287736000E-2,9.741082788E-3,2.563309669E-2,-2.504253387E-1,2.519221995E-1
4.782334900E-2,8.419498801E-2,6.735372543E-2,-4.524765015E-1,4.651454662E-1
5.276933900E-2,1.639324576E-1,9.397602081E-2,-5.578422546E-1,5.889765056E-1
5.771532900E-2,2.762767673E-1,1.291191578E-1,-5.711479187E-1,6.474647126E-1
6.266131800E-2,3.671767116E-1,1.879000664E-1,-5.364255905E-1,6.766665254E-1
6.760730800E-2,3.500341475E-1,2.158722878E-1,-4.827489853E-1,6.341697973E-1
7.255329700E-2,3.074662685E-1,2.107968330E-1,-4.505662918E-1,5.847912400E-1
7.749928700E-2,2.717164457E-1,1.835651398E-1,-3.885517120E-1,5.084273993E-1
8.244532900E-2,3.185107112E-1,1.035304070E-1,-2.841615677E-1,4.392213734E-1
8.739131800E-2,3.686124086E-1,-4.465818405E-3,-1.749706268E-1,4.080560888E-1
9.233730800E-2,3.832945824E-1,-1.079771519E-1,-8.082485199E-2,4.063329409E-1
9.728329700E-2,4.252260625E-1,-1.962759495E-1,-4.956245422E-3,4.683652602E-1
1.022292870E-1,4.038330317E-1,-2.702326775E-1,3.789424896E-2,4.873836184E-1
1.071752770E-1,3.418467343E-1,-3.692104816E-1,-9.117126465E-4,5.031663748E-1
1.121212660E-1,2.221019566E-1,-4.165017605E-1,-9.749412537E-2,4.819835060E-1
1.170672560E-1,1.175929010E-1,-4.253346920E-1,-1.994638443E-1,4.842762804E-1
1.220132970E-1,7.341913879E-2,-3.714966774E-1,-2.748804092E-1,4.679309678E-1
1.269592870E-1,4.591679573E-2,-3.281602859E-1,-3.825626373E-1,5.061143121E-1
1.319052770E-1,-1.416675001E-2,-3.081011772E-1,-5.309276581E-1,6.140123861E-1
1.368512660E-1,-6.823688745E-3,-2.915318012E-1,-6.428298950E-1,7.058807461E-1
1.417972560E-1,6.349132210E-2,-3.080008030E-1,-7.359981537E-1,8.003679934E-1
1.467432450E-1,1.163594723E-1,-3.099763393E-1,-7.858181000E-1,8.527220790E-1
1.516892350E-1,1.272763461E-1,-2.862784863E-1,-8.446750641E-1,9.009054356E-1
1.566352770E-1,1.301809251E-1,-2.492034435E-1,-8.427886963E-1,8.884493323E-1
1.615812660E-1,1.534108371E-1,-2.176527977E-1,-8.190183640E-1,8.612193134E-1
1.665272560E-1,1.337929517E-1,-2.146677971E-1,-7.924404144E-1,8.318320909E-1
1.714732450E-1,7.246890664E-2,-1.837599277E-1,-7.931804657E-1,8.174073065E-1
1.764192350E-1,5.417168140E-3,-1.583442688E-1,-7.924299240E-1,8.081135054E-1
1.813652240E-1,-6.248158216E-2,-6.862664223E-2,-7.458248138E-1,7.515771531E-1
1.863112140E-1,-1.964808106E-1,5.322384834E-2,-6.636409760E-1,6.941590826E-1
1.912572040E-1,-3.389245868E-1,2.108621597E-1,-5.231542587E-1,6.580449106E-1
1.962032450E-1,-4.850419164E-1,3.471431732E-1,-3.347539902E-1,6.839841206E-1
2.011492350E-1,-5.836395621E-1,4.715449810E-1,-5.478954315E-2,7.523241998E-1
2.060952240E-1,-6.686956286E-1,5.696907043E-1,2.590932846E-1,9.158769964E-1
2.110412140E-1,-7.456246614E-1,6.461715698E-1,6.534252167E-1,1.183409628E0
2.159872040E-1,-7.891595364E-1,7.006621361E-1,1.026476860E0,1.472193923E0
2.209331930E-1,-8.211660385E-1,6.908714771E-1,1.271665573E0,1.663956247E0
2.258791830E-1,-8.303914070E-1,6.389124393E-1,1.408456802E0,1.755422900E0
2.308252240E-1,-7.845265865E-1,4.869356155E-1,1.429944992E0,1.702154793E0
2.357712140E-1,-7.173509598E-1,3.189973831E-1,1.392424583E0,1.598498655E0
2.407172040E-1,-6.504280567E-1,1.987130642E-1,1.320446014E0,1.485301726E0
2.456631930E-1,-5.855301619E-1,6.918954849E-2,1.216968536E0,1.352274078E0
2.505122560E-1,-5.326323509E-1,-8.284330368E-3,1.021369934E0,1.151938537E0
2.553612660E-1,-4.367052317E-1,-5.296468735E-2,7.404613495E-1,8.612779618E-1
2.602102770E-1,-2.873793840E-1,-4.411506653E-2,4.324026108E-1,5.210614813E-1
2.650593390E-1,-2.209756374E-1,-6.110668182E-3,8.371353149E-2,2.363800498E-1
2.699083490E-1,-4.043567181E-1,4.421210289E-2,-1.995487213E-1,4.530769887E-1
2.747573600E-1,-4.370188713E-2,8.568954468E-2,-1.841325760E-1,2.077434922E-1
2.796063700E-1,4.440488815E-1,1.679680347E-1,-1.111936569E-1,4.876030140E-1
2.844553810E-1,7.338536978E-1,2.247514725E-1,2.006692886E-1,7.932985803E-1
2.893043910E-1,9.265713692E-1,2.334728241E-1,4.151973724E-1,1.041841120E0
2.941534020E-1,1.000159264E0,1.954600811E-1,6.349048615E-1,1.200677883E0
2.990024640E-1,9.355685711E-1,1.023821831E-1,8.831434250E-1,1.290625031E0
3.038514740E-1,6.907775402E-1,7.117033005E-3,1.006513596E0,1.220775934E0
3.087004850E-1,8.317414522E-1,-1.936436892E-1,1.002307892E0,1.316781239E0
3.135494950E-1,8.158924580E-1,-2.908300161E-1,8.889541626E-1,1.241169652E0
3.183985060E-1,6.791789532E-1,-3.521349430E-1,7.553663254E-1,1.075109926E0
3.232475160E-1,5.186913013E-1,-3.241475821E-1,5.125951767E-1,7.980389315E-1
3.280965270E-1,3.667759895E-1,-2.510037422E-1,3.159303665E-1,5.452884572E-1
3.329455890E-1,1.680400372E-1,-1.785542965E-1,1.486949921E-1,2.867565022E-1
3.377945990E-1,-4.269790649E-2,-6.244611740E-2,2.513217926E-2,7.971358248E-2
3.426436100E-1,-3.468708992E-1,2.309966087E-2,-7.372283936E-2,3.553703309E-1
3.474926200E-1,-1.385797977E0,1.435298920E-1,-1.755332947E-2,1.393321565E0
3.523416310E-1,-1.102961063E0,1.373381615E-1,2.276926041E-1,1.134561060E0
3.571906410E-1,-5.012054443E-1,1.050293446E-1,3.361310959E-1,6.125538134E-1
3.620396520E-1,-3.285565376E-1,8.460640907E-2,4.289913177E-1,5.469380162E-1
3.668887140E-1,-1.490881443E0,2.593452930E-1,4.900627136E-1,1.590644184E0
3.717377240E-1,-1.273872852E0,3.336529732E-1,5.274009705E-1,1.418530273E0
3.765867350E-1,-1.253881931E0,3.274104595E-1,5.959224701E-1,1.426373407E0
3.814357450E-1,-1.313844681E0,2.247927189E-1,7.208662033E-1,1.515377080E0
3.862847560E-1,-1.306728363E0,1.166682243E-1,7.715234756E-1,1.521972064E0
3.911337660E-1,-1.204653263E0,3.374195099E-2,8.010978699E-1,1.447095643E0
3.959828290E-1,-1.003866196E0,-5.015230179E-2,8.076381683E-1,1.289395984E0
4.008318390E-1,-3.592338562E-1,-1.010370255E-1,8.048343658E-1,8.871391099E-1
4.056808490E-1,5.422115326E-3,-1.347620487E-1,7.522802353E-1,7.642746637E-1
4.105298600E-1,5.976867676E-1,-1.967525482E-1,5.557193756E-1,8.395028659E-1
4.153788700E-1,1.414436340E0,-1.971144676E-1,3.104019165E-1,1.461449152E0
4.202278810E-1,1.844526291E0,-1.209683418E-1,-8.144378662E-4,1.848488907E0
4.250768910E-1,2.142451048E0,-5.772495270E-2,-4.089899063E-1,2.181903162E0
4.299259540E-1,2.162205219E0,7.505893707E-3,-8.099088669E-1,2.308926184E0
4.347749640E-1,1.785525084E0,1.762938499E-2,-1.069404602E0,2.081354564E0
4.396239740E-1,1.237948418E0,-4.275560379E-3,-1.047667027E0,1.621770873E0
4.444729850E-1,7.100682259E-1,-1.201844215E-2,-9.158053398E-1,1.158896349E0
4.493219950E-1,4.724502563E-2,2.845525742E-2,-7.870512009E-1,7.889812336E-1
4.541710060E-1,-3.908438683E-1,1.632764339E-1,-8.624548912E-1,9.608572020E-1
4.590200680E-1,-4.619240761E-1,2.656240463E-1,-9.317789078E-1,1.073378740E0
4.638690790E-1,-2.940707207E-1,3.166294098E-1,-8.613171577E-1,9.636384271E-1
4.687180890E-1,-1.431131363E-1,2.500874996E-1,-7.113475800E-1,7.674897437E-1
4.735670990E-1,-1.912980080E-1,1.756141186E-1,-4.397015572E-1,5.106590897E-1
4.784161100E-1,-2.920050621E-1,3.843975067E-2,-1.702284813E-1,3.401798151E-1
4.832651200E-1,-5.476818085E-1,-1.284062862E-1,2.313880920E-1,6.082630901E-1
4.881141830E-1,-2.341726780E0,-1.481413841E-1,6.158947945E-1,2.425892945E0
4.929631930E-1,-1.487708569E0,-3.063642979E-1,3.107104301E-1,1.550379579E0
4.978122040E-1,-5.707159042E-1,-6.485756636E-1,4.952096939E-2,8.653434931E-1
5.026612140E-1,4.192433357E-1,-7.564282417E-1,3.139925003E-2,8.654100602E-1
5.075102240E-1,8.243312836E-1,-6.791369915E-1,2.052011490E-1,1.087592125E0
5.123592350E-1,6.847333908E-1,-4.307787418E-1,4.683961868E-1,9.347861406E-1
5.172082450E-1,4.851956367E-1,-1.840476990E-1,6.074986458E-1,7.989636826E-1
5.220573080E-1,1.271214485E-1,1.080355644E-1,5.432639122E-1,5.683020536E-1
5.269063180E-1,-3.294796944E-1,-1.239752769E-2,-6.406388283E-1,7.205058473E-1
5.317553290E-1,-6.681437492E-1,1.841683388E-1,-9.354863167E-1,1.164245977E0
5.366043390E-1,-1.038118839E0,6.900768280E-1,-1.260985851E0,1.773127765E0
5.414533490E-1,-9.440336227E-1,1.240267277E0,-1.473456860E0,2.144886364E0
5.463024120E-1,-8.123626709E-1,1.543587208E0,-1.224744320E0,2.131336019E0
5.511514220E-1,-5.658626556E-1,1.510013580E0,-8.033161163E-1,1.801571076E0
5.560004330E-1,-1.280345917E-1,1.125408888E0,-2.881560326E-1,1.168748014E0
5.608494430E-1,-5.216197968E-1,8.322460651E-1,3.903474808E-1,1.056925674E0
5.656984540E-1,-1.377422810E0,8.463711739E-1,6.904087067E-1,1.757925466E0
5.705474640E-1,-1.999066353E0,8.682415485E-1,4.264383316E-1,2.220801504E0
5.753965270E-1,-1.909993649E0,8.673920631E-1,8.437108994E-2,2.099419732E0
5.802455370E-1,-1.391252041E0,7.972447872E-1,-2.546558380E-1,1.623585873E0
5.850945470E-1,-8.256254196E-1,6.374943256E-1,-4.836821556E-1,1.149784665E0
5.899435580E-1,-4.857544899E-1,4.838378429E-1,-5.103993416E-1,8.547303496E-1
5.947925680E-1,-2.961125374E-1,3.949675560E-1,-3.669695854E-1,6.151005460E-1
5.996415790E-1,-3.879590034E-1,3.224604130E-1,-1.869516373E-1,5.379998336E-1
6.044905890E-1,-5.442171097E-1,2.184708118E-1,-2.117061615E-2,5.868133886E-1
6.093396520E-1,-6.179041862E-1,1.305205822E-1,8.059024811E-2,6.366600300E-1
6.141886620E-1,-9.403405190E-1,1.148819923E-1,2.162842751E-1,9.717083160E-1
6.190376720E-1,-5.954227448E-1,1.970975399E-1,3.053455353E-1,6.975755021E-1
6.238866830E-1,-2.817940712E-1,2.670927048E-1,1.794757843E-1,4.277358632E-1
6.287356930E-1,-3.717184067E-1,4.265129566E-1,-2.753329277E-1,6.292027472E-1
6.335847560E-1,7.413625717E-2,4.415605068E-1,-2.368597984E-1,5.065317660E-1
6.384337660E-1,1.101980209E-1,4.762418270E-1,-8.755016327E-2,4.966033756E-1
6.432827770E-1,-6.659364700E-2,6.030373573E-1,-3.556871414E-2,6.077449314E-1
6.481317870E-1,-1.567606926E-1,7.543561459E-1,-6.043577194E-2,7.728386585E-1
6.529807970E-1,-1.220078468E-1,8.515324593E-1,-4.481983185E-2,8.613955312E-1
6.578298080E-1,-1.473774910E-1,9.235548973E-1,9.693956375E-2,9.402505263E-1
6.626788700E-1,6.807231903E-2,8.738269806E-1,2.596988678E-1,9.141394503E-1
6.675278810E-1,1.776342392E-1,7.276728153E-1,4.420080185E-1,8.697314169E-1
6.723768910E-1,-2.414321899E-2,6.499207020E-1,6.630868912E-1,9.287970926E-1
6.772259020E-1,3.290462494E-2,5.244214535E-1,6.374063492E-1,8.260674483E-1
6.820749120E-1,-4.799032211E-2,4.420092106E-1,8.075399399E-1,9.218437871E-1
6.869239740E-1,-1.611418724E-1,4.048194885E-1,1.172232628E0,1.250589803E0
6.917729850E-1,-2.409868240E-1,4.483280182E-1,1.071315289E0,1.186081409E0
6.966219950E-1,-2.913932800E-1,4.441738129E-1,8.207912445E-1,9.777007143E-1
7.014710060E-1,-2.571573257E-1,3.696343899E-1,6.031508446E-1,7.526954322E-1
7.063200160E-1,-1.594486237E-1,2.660775185E-1,4.191832542E-1,5.214745536E-1
7.111690270E-1,-5.033779144E-2,2.219202518E-1,2.885365486E-1,3.674722184E-1
7.160180890E-1,2.785110474E-2,1.868603230E-1,2.235331535E-1,2.926765024E-1
7.208670990E-1,8.262014389E-2,2.030636072E-1,2.218208313E-1,3.118740097E-1
7.257161100E-1,5.487108231E-2,2.361012697E-1,2.764062881E-1,3.676344399E-1
7.305651200E-1,-2.635097504E-2,2.566487789E-1,3.919024467E-1,4.692019793E-1
7.354141310E-1,-9.682846069E-2,2.712817192E-1,4.749689102E-1,5.554862623E-1
7.402631930E-1,-1.594247818E-1,3.175019026E-1,5.515418053E-1,6.560656081E-1
7.451122040E-1,-1.312637329E-1,3.663663864E-1,5.904073715E-1,7.071317848E-1
7.499612140E-1,-6.296253204E-2,3.844872713E-1,5.631356239E-1,6.847747609E-1
7.548102240E-1,-2.117538452E-2,4.316409826E-1,5.107693672E-1,6.690647811E-1
7.596592350E-1,6.309509277E-3,3.982169628E-1,4.693837166E-1,6.155791036E-1
7.645082970E-1,-2.548122406E-2,4.132583141E-1,3.938503265E-1,5.714453663E-1
7.693573080E-1,-4.251384735E-2,4.339224100E-1,2.747097015E-1,5.153266006E-1
7.742063180E-1,-1.649188995E-2,4.296722412E-1,1.142439842E-1,4.449066253E-1
7.790553290E-1,7.079124451E-3,4.225662947E-1,-3.525257111E-2,4.240933048E-1
7.839043390E-1,-2.626419067E-3,4.130914211E-1,-1.667666435E-1,4.454913396E-1
7.887534020E-1,-4.982948303E-3,3.967597485E-1,-2.329497337E-1,4.601181438E-1
7.936024120E-1,-5.718517303E-2,3.951692581E-1,-2.510204315E-1,4.716356047E-1
7.984514220E-1,-1.305780411E-1,3.917591572E-1,-2.929811478E-1,5.063238242E-1
8.033004330E-1,-1.800508499E-1,4.105075598E-1,-3.186645508E-1,5.499835099E-1
8.081494430E-1,-2.296409607E-1,3.966921568E-1,-3.236351013E-1,5.611054419E-1
8.129984540E-1,-2.603654861E-1,3.671532869E-1,-2.771801949E-1,5.286024810E-1
8.178475160E-1,-3.151283264E-1,4.026618004E-1,-2.128000259E-1,5.538287088E-1
8.226965270E-1,-3.939428329E-1,4.406981468E-1,-1.045970917E-1,6.002885671E-1
8.275455370E-1,-4.636735916E-1,5.165969133E-1,-2.460718155E-2,6.946013848E-1
8.323945470E-1,-5.603427887E-1,5.801265240E-1,3.059387207E-3,8.065607135E-1
8.372435580E-1,-6.101865768E-1,6.386781931E-1,2.835035324E-2,8.837653735E-1
8.420926200E-1,-6.204929352E-1,6.521105766E-1,4.186534882E-2,9.011173032E-1
8.469416310E-1,-5.889530182E-1,6.422857046E-1,3.672075272E-2,8.722069695E-1
8.517906410E-1,-5.465011597E-1,6.308106184E-1,3.005838394E-2,8.351581049E-1
8.566396520E-1,-5.193815231E-1,6.484782696E-1,9.327840805E-2,8.360514901E-1
8.614886620E-1,-5.336904526E-1,6.783130169E-1,1.522626877E-1,8.764233989E-1
8.663377240E-1,-4.821758270E-1,6.986286640E-1,2.379488945E-1,8.815867596E-1
8.711867350E-1,-3.675689697E-1,6.905231476E-1,3.025879860E-1,8.387423050E-1
8.760357450E-1,-2.615165710E-1,6.898366213E-1,3.297982216E-1,8.081041690E-1
8.808847560E-1,-2.280311584E-1,6.511477232E-1,3.606214523E-1,7.784853233E-1
8.857338180E-1,-1.926975250E-1,6.244322062E-1,4.026775360E-1,7.675917627E-1
8.905828290E-1,-2.388048172E-1,5.903265476E-1,4.060354233E-1,7.552336979E-1
8.954318390E-1,-2.993068695E-1,5.415872335E-1,4.042129517E-1,7.391139587E-1
9.002808490E-1,-3.457040787E-1,5.186357498E-1,4.065613747E-1,7.441683293E-1
9.051298600E-1,-3.090314865E-1,4.689946175E-1,3.964323997E-1,6.874700418E-1
9.099788700E-1,-2.277231216E-1,4.238184690E-1,3.835411072E-1,6.152915534E-1
9.148279330E-1,-1.231765747E-1,3.903129101E-1,3.611774445E-1,5.458624211E-1
9.196769430E-1,-2.854251862E-2,3.780359030E-1,3.274788857E-1,5.009673042E-1
9.245259540E-1,5.637454987E-2,3.820908070E-1,2.827472687E-1,4.786621905E-1
9.293749640E-1,1.150531769E-1,4.144123793E-1,2.366652489E-1,4.909025297E-1
9.342240270E-1,1.547555923E-1,3.916358948E-1,2.272553444E-1,4.785111900E-1
9.390730370E-1,1.874589920E-1,3.951064348E-1,2.113952637E-1,4.857344192E-1
9.439220470E-1,2.012758255E-1,3.962314129E-1,2.080888748E-1,4.907262682E-1
9.487710580E-1,2.058706284E-1,3.449730873E-1,2.054595947E-1,4.512236603E-1
9.536200680E-1,1.560297012E-1,3.201264143E-1,2.582149506E-1,4.398876555E-1
9.584691310E-1,8.527851105E-2,3.309072256E-1,3.398098946E-1,4.819157404E-1
9.633181410E-1,5.771923065E-2,3.841853142E-1,4.353561401E-1,5.834936452E-1
9.681671520E-1,5.850791931E-2,4.058231115E-1,4.704313278E-1,6.240362238E-1
9.730161620E-1,6.832981110E-2,4.007238150E-1,4.617862701E-1,6.152195529E-1
9.778652240E-1,8.951663971E-2,4.046622515E-1,4.406065941E-1,6.048958070E-1
9.827142350E-1,1.031179428E-1,3.937014341E-1,3.881878853E-1,5.624268518E-1
9.875632450E-1,9.254646301E-2,3.941493034E-1,3.142642975E-1,5.125237262E-1
9.924122560E-1,9.360504150E-2,4.274094105E-1,2.093496323E-1,4.850443036E-1
9.972612660E-1,9.679889679E-2,4.244871140E-1,9.749031067E-2,4.461655489E-1
1.002110329E0,1.402635574E-1,4.453749657E-1,-9.382724762E-3,4.670340042E-1
1.006959339E0,1.667566299E-1,4.376728535E-1,-1.349644661E-1,4.874225143E-1
1.011808349E0,1.860227585E-1,4.302347898E-1,-2.146844864E-1,5.155539446E-1
1.016657360E0,2.005977631E-1,4.040770531E-1,-2.985863686E-1,5.409912632E-1
1.021506370E0,1.914901733E-1,3.997371197E-1,-3.437166214E-1,5.608915824E-1
1.026355433E0,1.819334030E-1,3.680940866E-1,-3.727664948E-1,5.545699950E-1
1.031204443E0,1.630535126E-1,3.653320074E-1,-3.658623695E-1,5.421339291E-1
1.036053454E0,1.727609634E-1,3.389937878E-1,-3.401384354E-1,5.103501679E-1
1.040902464E0,1.774959564E-1,3.130322695E-1,-2.793178558E-1,4.555353783E-1
1.045751527E0,1.843862534E-1,2.612454891E-1,-2.264328003E-1,3.918154018E-1
1.050600537E0,1.128559113E-1,2.335596085E-1,-1.788077354E-1,3.150535727E-1
1.055449547E0,3.477001190E-2,2.887539864E-1,-6.981992722E-2,2.991030602E-1
1.060298558E0,2.282142639E-3,3.121572733E-1,-2.172946930E-3,3.121731781E-1
1.065147568E0,7.730484009E-3,3.254246712E-1,7.578849792E-3,3.256046928E-1
1.069996631E0,2.232837677E-2,3.263907433E-1,-2.349567413E-2,3.279962201E-1
1.074845641E0,1.285076141E-2,3.010821342E-1,-4.752349854E-2,3.050804427E-1
1.079694652E0,3.187084198E-2,2.665038109E-1,-9.516620636E-2,2.847747155E-1
1.084543662E0,3.895950317E-2,2.418437004E-1,-1.351642609E-1,2.797777613E-1
1.089392724E0,2.707481384E-2,2.247283459E-1,-1.628952026E-1,2.788740254E-1
1.094241735E0,4.149627686E-2,2.294545174E-1,-2.069044113E-1,3.117382748E-1
1.099090745E0,8.430957794E-2,2.393425703E-1,-2.458453178E-1,3.533169840E-1
1.103939756E0,9.840297699E-2,2.756907940E-1,-2.321748734E-1,3.736224452E-1
1.108788818E0,1.171779633E-1,2.717063427E-1,-2.185926437E-1,3.678828015E-1
1.113637829E0,1.168804169E-1,3.059617281E-1,-2.050619125E-1,3.864246354E-1
1.118486839E0,8.109855652E-2,3.020250797E-1,-1.843485832E-1,3.630158740E-1
1.123335849E0,5.512428284E-2,2.649021149E-1,-1.946120262E-1,3.332951511E-1
1.128184860E0,5.782985687E-2,2.517606020E-1,-1.786789894E-1,3.140921430E-1
1.133033922E0,6.050682068E-2,1.959698200E-1,-1.699843407E-1,2.663830358E-1
1.137882933E0,8.693504333E-2,1.358565092E-1,-1.541442871E-1,2.231034605E-1
1.142731943E0,9.896469116E-2,1.116929054E-1,-1.311683655E-1,1.986817941E-1
1.147580954E0,5.867385864E-2,1.016418934E-1,-8.696269989E-2,1.460691869E-1
1.152430016E0,2.331542969E-2,1.433953047E-1,1.370573044E-2,1.459235064E-1
1.157279027E0,5.676460266E-2,1.297867298E-1,7.044172287E-2,1.582050937E-1
1.162128037E0,6.083106995E-2,1.135010719E-1,1.115336418E-1,1.703603993E-1
1.166977047E0,4.039096832E-2,7.567203045E-2,9.894084930E-2,1.309464706E-1
1.171826110E0,1.960659027E-2,-6.663799286E-5,5.957746506E-2,6.272078735E-2
1.176675120E0,2.311134338E-2,-8.700311184E-2,-2.863216400E-2,9.446415446E-2
1.181524131E0,5.696868896E-2,-3.079097271E-1,-5.354471207E-1,6.202881996E-1
1.186373141E0,1.256179810E-1,-3.292310238E-1,-7.646389008E-1,8.419296839E-1
1.191222152E0,2.177867889E-1,-1.482025385E-1,-3.626055717E-1,4.481940188E-1
1.196071214E0,3.630390167E-1,1.957297325E-2,1.297764778E-1,3.860341476E-1
1.200920224E0,4.252152443E-1,1.834006310E-1,6.042819023E-1,7.613149236E-1
1.205769235E0,4.434790611E-1,2.175823450E-1,6.822333336E-1,8.422933432E-1
1.210618297E0,4.165740013E-1,1.139422655E-1,2.874441147E-1,5.187878733E-1
1.215467308E0,3.994450569E-1,-1.708805561E-2,3.363704681E-2,4.012228883E-1
1.220316318E0,3.468670845E-1,-1.349363923E-1,-1.207971573E-1,3.913011085E-1
1.225165329E0,3.515009880E-1,-1.495650411E-1,3.369331360E-3,3.820130868E-1
1.230014339E0,4.462022781E-1,-8.784461021E-2,1.595783234E-1,4.819526842E-1
1.234863402E0,5.331535339E-1,-2.383613586E-2,2.458577156E-1,5.875941358E-1
1.239712412E0,4.700274467E-1,4.487252235E-2,2.508883476E-1,5.346815005E-1
1.244561422E0,4.567904472E-1,7.549512386E-2,3.119969368E-1,5.583002015E-1
1.249410433E0,4.306535721E-1,6.362724304E-2,4.608416557E-1,6.339447585E-1
1.254259495E0,4.222421646E-1,2.372777462E-2,5.229859352E-1,6.725814012E-1
1.259108506E0,4.235515594E-1,-4.653203487E-2,7.210884094E-1,8.375736672E-1
1.263957516E0,3.988170624E-1,-1.090300679E-1,7.929224968E-1,8.942419644E-1
1.268806527E0,3.723640442E-1,-1.449275017E-1,6.809020042E-1,7.894849597E-1
1.273655589E0,3.541541100E-1,-1.496853828E-1,5.296988487E-1,6.545316782E-1
1.278504599E0,3.516902924E-1,-1.354659200E-1,3.498787880E-1,5.142492037E-1
1.283353610E0,4.173107147E-1,-1.214059591E-1,2.465219498E-1,4.996605961E-1
1.288202620E0,5.529985428E-1,-9.556865692E-2,2.002873421E-1,5.958655687E-1
1.293051683E0,6.493659019E-1,-6.519675255E-2,2.065052986E-1,6.845225559E-1
1.297900693E0,7.047438622E-1,-6.603598595E-2,1.775393486E-1,7.297567286E-1
1.302749704E0,6.865468025E-1,-5.507147312E-2,9.986972809E-2,6.959549855E-1
1.307598714E0,6.027498245E-1,-4.907888174E-2,7.475376129E-3,6.047908472E-1
1.312447777E0,4.897456169E-1,-5.038410425E-2,-8.730983734E-2,5.000123348E-1
1.317296787E0,3.549761772E-1,-4.246783257E-2,-1.392693520E-1,3.836763683E-1
1.322145797E0,1.988353729E-1,-5.638104677E-2,-1.769366264E-1,2.720678183E-1
1.326994860E0,7.846355438E-2,-1.619797945E-2,-2.027854919E-1,2.180386655E-1
1.331843870E0,-3.960609436E-2,8.699059486E-3,-2.358293533E-1,2.392902009E-1
1.336692881E0,-1.196556091E-1,8.235007524E-2,-2.473287582E-1,2.868283709E-1
1.341541891E0,-1.524906158E-1,1.331428885E-1,-2.611842155E-1,3.304506183E-1
1.346390902E0,-1.977624893E-1,1.944693923E-1,-2.962765694E-1,4.058425215E-1
1.351239964E0,-2.505521774E-1,2.187690735E-1,-3.262357712E-1,4.659035088E-1
1.356088974E0,-2.941589355E-1,2.538639903E-1,-3.534531593E-1,5.252671137E-1
1.360937985E0,-3.122177124E-1,3.092349768E-1,-3.449892998E-1,5.586803986E-1
1.365787047E0,-3.264465332E-1,3.255638480E-1,-3.607020378E-1,5.853760486E-1
1.370636058E0,-3.085918427E-1,3.485104442E-1,-3.318839073E-1,5.716951836E-1
1.375485068E0,-2.685403824E-1,3.568630219E-1,-3.160605431E-1,5.471374784E-1
1.380334079E0,-2.327232361E-1,3.841144443E-1,-2.753877640E-1,5.268229603E-1
1.385183141E0,-2.463111877E-1,3.636972308E-1,-2.197389603E-1,4.911517969E-1
1.390032152E0,-2.260532379E-1,3.672955036E-1,-1.590466499E-1,4.596758534E-1
1.394881162E0,-1.914367676E-1,3.567784429E-1,-6.758451462E-2,4.104955053E-1
1.399730172E0,-1.262111664E-1,3.156965971E-1,2.081584930E-2,3.406272149E-1
1.404579235E0,-8.535861969E-2,2.775682211E-1,8.933401108E-2,3.038268863E-1
1.409428245E0,-3.802585602E-2,2.613793612E-1,1.615648270E-1,3.096261124E-1
1.414277256E0,1.089382172E-2,2.196613550E-1,2.254395485E-1,3.149488471E-1
1.419126318E0,2.810573578E-2,1.574580073E-1,2.738037109E-1,3.170984525E-1
1.423975329E0,7.566165924E-2,1.011197567E-1,2.974157333E-1,3.231191890E-1
1.428824339E0,9.882402420E-2,2.212250233E-2,3.464469910E-1,3.609447470E-1
1.433673349E0,5.749034882E-2,-3.476083279E-3,4.088797569E-1,4.129163099E-1
1.438522412E0,1.870918274E-2,-3.565704823E-2,4.610157013E-1,4.627709319E-1
1.443371422E0,-1.055622101E-2,-3.405761719E-2,5.217247009E-1,5.229416972E-1
1.448220433E0,9.915351868E-3,-3.455138206E-2,5.576572418E-1,5.588145592E-1
1.453069495E0,1.800823212E-2,-3.474658728E-2,6.069769859E-1,6.082373576E-1
1.457918506E0,-2.697944641E-3,-4.181879759E-2,6.293721199E-1,6.307656903E-1
1.462767516E0,-2.825069427E-2,-3.663909435E-2,6.273961067E-1,6.290996739E-1
1.467616527E0,-1.832962036E-2,-3.109365702E-2,6.367521286E-1,6.377743047E-1
1.472465589E0,7.906913757E-3,-3.462827206E-2,6.195545197E-1,6.205718648E-1
1.477314599E0,3.865814209E-2,-5.419826508E-2,6.047897339E-1,6.084427057E-1
1.482163610E0,2.182197571E-2,-3.041154146E-2,6.092634201E-1,6.104121358E-1
1.487012620E0,-1.821804047E-2,-3.968906403E-2,5.881419182E-1,5.897609980E-1
1.491861683E0,-7.650756836E-2,-1.074385643E-2,5.891489983E-1,5.941930500E-1
1.496710693E0,-7.695102692E-2,2.040851116E-2,5.978913307E-1,6.031683109E-1
1.501559704E0,-1.007223129E-1,6.547087431E-2,6.024389267E-1,6.142996664E-1
1.506408766E0,-1.406087875E-1,9.582895041E-2,6.098017693E-1,6.330973201E-1
1.511257777E0,-1.657457352E-1,1.162716150E-1,6.150474548E-1,6.475137905E-1
1.516106787E0,-1.549673080E-1,1.268577576E-1,6.085987091E-1,6.407028531E-1
1.520955797E0,-1.560821533E-1,1.846262813E-1,6.236958504E-1,6.689133098E-1
1.525804860E0,-1.501111984E-1,2.202590704E-1,6.315431595E-1,6.854882875E-1
1.530653870E0,-1.205682755E-1,2.458600998E-1,6.083641052E-1,6.671512439E-1
1.535502881E0,-6.531810760E-2,2.734729648E-1,5.828118324E-1,6.470885176E-1
1.540351943E0,-3.673553467E-2,2.841210961E-1,5.478529930E-1,6.182371703E-1
1.545200954E0,4.133605957E-2,3.231257200E-1,5.106725693E-1,6.057271447E-1
1.550049964E0,1.114740372E-1,3.548158407E-1,4.569396973E-1,5.891643478E-1
1.554898974E0,1.571378708E-1,3.674751520E-1,4.105134010E-1,5.729324133E-1
1.559748037E0,2.378511429E-1,3.755069375E-1,3.357362747E-1,5.570435104E-1
1.564597047E0,2.608075142E-1,3.932092190E-1,2.755985260E-1,5.464326096E-1
1.569446058E0,2.859067917E-1,3.967564106E-1,2.443623543E-1,5.466912319E-1
1.574295068E0,2.917695045E-1,3.885345459E-1,2.394180298E-1,5.416728996E-1
1.579144131E0,2.785005569E-1,4.112095833E-1,2.652258873E-1,5.630281102E-1
1.583993141E0,2.675666809E-1,4.549288750E-1,2.740092278E-1,5.946707214E-1
1.588842152E0,3.204822540E-1,4.529175162E-1,2.633090019E-1,6.141455708E-1
1.593691214E0,3.251132965E-1,4.625135064E-1,2.497768402E-1,6.180662336E-1
1.598540224E0,3.768033981E-1,4.599729776E-1,2.144846916E-1,6.321072883E-1
1.603389235E0,4.016389847E-1,4.501271844E-1,1.813983917E-1,6.299474047E-1
1.608238297E0,4.331116676E-1,4.259586334E-1,1.339588165E-1,6.220702843E-1
1.613087308E0,4.381060600E-1,4.089577794E-1,9.388160706E-2,6.066276793E-1
1.617936318E0,4.193253517E-1,3.966127634E-1,3.280782700E-2,5.781105329E-1
1.622785381E0,4.363670349E-1,3.912649751E-1,-2.761507034E-2,5.867427562E-1
1.627634391E0,4.249281883E-1,3.880941868E-1,-8.966875076E-2,5.824272898E-1
1.632483402E0,4.542365074E-1,3.634249568E-1,-1.720623970E-1,6.066415518E-1
1.637332412E0,4.813380241E-1,3.436016440E-1,-2.483825684E-1,6.414376693E-1
1.642181474E0,4.920964241E-1,3.144742250E-1,-2.924604416E-1,6.531355439E-1
1.647030485E0,4.987163544E-1,2.879131436E-1,-3.730611801E-1,6.861389251E-1
1.651879495E0,5.226755142E-1,2.497067451E-1,-4.470295906E-1,7.316957063E-1
1.656728558E0,5.402178764E-1,2.380618453E-1,-4.928989410E-1,7.690631718E-1
1.661577568E0,5.134630203E-1,2.264959812E-1,-4.799776077E-1,7.384600237E-1
1.666426579E0,4.213862419E-1,2.575044632E-1,-4.657268524E-1,6.788051374E-1
1.671275641E0,3.688693047E-1,2.690215111E-1,-4.739832878E-1,6.581012798E-1
1.676124652E0,3.769454956E-1,2.683598399E-1,-4.736871719E-1,6.621815817E-1
1.680973662E0,4.213385582E-1,2.747573256E-1,-4.673519135E-1,6.866116658E-1
1.685822672E0,4.281373024E-1,2.929736972E-1,-4.337406158E-1,6.762145065E-1
1.690671735E0,4.023280144E-1,3.062217832E-1,-4.016461372E-1,6.457238041E-1
1.695520745E0,3.821125031E-1,2.932032943E-1,-3.544921875E-1,5.980324805E-1
1.700369756E0,3.602995872E-1,3.110170960E-1,-3.019113541E-1,5.636469572E-1
1.705218818E0,3.533997536E-1,3.593379259E-1,-2.725844383E-1,5.729898837E-1
1.710067829E0,3.375053406E-1,3.927643895E-1,-2.355394363E-1,5.689046903E-1
1.714916839E0,3.198666573E-1,4.232960343E-1,-2.168397903E-1,5.731611517E-1
1.719765902E0,2.980809212E-1,4.722023606E-1,-1.665449142E-1,5.827216432E-1
1.724614912E0,2.602996826E-1,5.013360381E-1,-1.229033470E-1,5.780994556E-1
1.729463922E0,3.014678955E-1,5.226457119E-1,-9.074735641E-2,6.101446672E-1
1.734312985E0,2.973871231E-1,5.505387187E-1,-7.260799408E-2,6.299237276E-1
1.739161995E0,2.581233978E-1,5.729641914E-1,-7.988166809E-2,6.334798608E-1
1.744011006E0,2.411603928E-1,5.876156688E-1,-7.633924484E-2,6.397485362E-1
1.748860068E0,2.225942612E-1,6.017767787E-1,-4.780054092E-2,6.434037521E-1
1.753709079E0,2.261104584E-1,6.061302423E-1,-1.829195023E-2,6.471896210E-1
1.758558089E0,2.372694016E-1,5.819216967E-1,1.928234100E-2,6.287300205E-1
1.763407099E0,1.561508179E-1,5.838593245E-1,9.776878357E-2,6.122364933E-1
1.768256162E0,6.645870209E-2,5.924222469E-1,2.285389900E-1,6.384441618E-1
1.773105172E0,3.752708435E-3,6.122927070E-1,3.326873779E-1,6.968481422E-1
1.777954183E0,-1.582431793E-2,6.530898809E-1,4.028692245E-1,7.675157417E-1
1.782803245E0,7.072448730E-3,6.864616871E-1,4.245533943E-1,8.071711417E-1
1.787652256E0,8.371639252E-2,7.031918764E-1,4.380192757E-1,8.326752880E-1
1.792501266E0,1.067600250E-1,7.226163745E-1,4.573001862E-1,8.617978811E-1
1.797350329E0,1.027851105E-1,7.543511987E-1,4.657483101E-1,8.924864135E-1
1.802199339E0,4.120540619E-2,7.437737584E-1,4.848451614E-1,8.888037577E-1
1.807048349E0,7.955551147E-3,7.222584486E-1,4.741687775E-1,8.640350611E-1
1.811897412E0,-4.458332062E-2,7.184414268E-1,4.625492096E-1,8.556269792E-1
1.816746422E0,-7.582759857E-2,7.108592391E-1,4.904756546E-1,8.669700400E-1
1.821595433E0,-1.547164917E-1,7.468643188E-1,5.244903564E-1,9.256530871E-1
1.826444495E0,-1.955614090E-1,7.809327245E-1,5.381827354E-1,9.683701986E-1
1.831293506E0,-2.391262054E-1,8.320136070E-1,5.694727898E-1,1.036208108E0
1.836142516E0,-2.973957062E-1,8.737472296E-1,5.704703331E-1,1.085041395E0
1.840991579E0,-3.204889297E-1,9.228319526E-1,5.863533020E-1,1.139360418E0
1.845840589E0,-3.324842453E-1,9.483439326E-1,5.670304298E-1,1.153874125E0
1.850689599E0,-2.978992462E-1,9.528494477E-1,5.340948105E-1,1.132220516E0
1.855538662E0,-2.835283279E-1,9.484621286E-1,5.304126740E-1,1.123078950E0
1.860387672E0,-3.317136765E-1,9.705772996E-1,5.039486885E-1,1.142811681E0
1.865236683E0,-3.944826126E-1,9.760941267E-1,5.047216415E-1,1.167527392E0
1.870085745E0,-4.148101807E-1,1.007734060E0,4.683547020E-1,1.186149885E0
1.874934756E0,-4.144926071E-1,1.032160759E0,4.068288803E-1,1.184343570E0
1.879783766E0,-4.458637238E-1,1.049419880E0,3.441519737E-1,1.191015166E0
1.884632829E0,-4.445447922E-1,1.050118327E0,2.899155617E-1,1.176613618E0
1.889481839E0,-4.487543106E-1,1.017911315E0,2.298307419E-1,1.135933997E0
1.894330849E0,-4.322862625E-1,9.555871487E-1,1.901473999E-1,1.065914746E0
1.899179912E0,-3.287525177E-1,8.115419149E-1,1.590290070E-1,8.899262456E-1
1.904028922E0,-4.045696259E-1,7.454133034E-1,1.555438042E-1,8.622711001E-1
1.908877933E0,-5.893964767E-1,7.728429437E-1,1.677017212E-1,9.863053734E-1
1.913726995E0,-7.327156067E-1,8.051034212E-1,1.908884048E-1,1.105215844E0
1.918576006E0,-7.729845047E-1,8.303171992E-1,2.111482620E-1,1.153913032E0
1.923425016E0,-7.702426910E-1,8.675905466E-1,2.762417793E-1,1.192600805E0
1.928274079E0,-8.551292419E-1,9.642153978E-1,3.316779137E-1,1.330777063E0
1.933123089E0,-9.342813492E-1,1.024587393E0,4.275655746E-1,1.451024909E0
1.937972099E0,-1.017341614E0,1.074967861E0,5.064239502E-1,1.564290599E0
1.942821162E0,-1.068804741E0,1.098674893E0,5.563077927E-1,1.630615974E0
1.947670172E0,-1.003609657E0,1.034338474E0,5.820021629E-1,1.554289208E0
1.952519183E0,-9.398689270E-1,9.572434425E-1,5.845327377E-1,1.463334251E0
1.957368245E0,-9.599590302E-1,8.803486824E-1,5.486779213E-1,1.413358625E0
1.962217256E0,-1.027815819E0,8.343544006E-1,4.794406891E-1,1.407982954E0
1.967066318E0,-1.147933006E0,8.212958574E-1,4.464621544E-1,1.480407217E0
1.971915329E0,-1.231676102E0,8.240288496E-1,4.285626411E-1,1.542632653E0
1.976764339E0,-1.278992653E0,8.543167114E-1,3.878021240E-1,1.586212387E0
1.981613402E0,-1.285166740E0,8.666859269E-1,3.863496780E-1,1.597518113E0
1.986462412E0,-1.300488472E0,8.779407740E-1,3.475904465E-1,1.607130793E0
1.991311422E0,-1.317763329E0,8.904052973E-1,2.978959084E-1,1.618043187E0
1.996160485E0,-1.348955154E0,8.373188972E-1,2.563052177E-1,1.608252253E0
2.001009495E0,-1.358201027E0,8.167463541E-1,2.347841263E-1,1.602157365E0
2.005858506E0,-1.388645172E0,7.762251496E-1,2.163109779E-1,1.605506567E0
2.010707516E0,-1.409272194E0,7.445132136E-1,1.911973953E-1,1.605273960E0
2.015556579E0,-1.460810661E0,7.145988345E-1,1.806764603E-1,1.636234478E0
2.020405589E0,-1.543245316E0,6.888517141E-1,1.440267563E-1,1.696132806E0
2.025254652E0,-1.587302208E0,6.362301707E-1,1.194472313E-1,1.714230081E0
2.030103662E0,-1.659916878E0,5.830698013E-1,9.496641159E-2,1.761906085E0
2.034952672E0,-1.765748024E0,5.459495783E-1,9.933280945E-2,1.850890065E0
2.039801735E0,-1.849855423E0,4.889709651E-1,9.658861160E-2,1.915825423E0
2.044650745E0,-1.898088455E0,4.433842301E-1,7.456827164E-2,1.950612670E0
2.049499808E0,-1.834280968E0,3.759908974E-1,6.405353546E-2,1.873515060E0
2.054348818E0,-1.763738632E0,3.230698407E-1,3.633499146E-2,1.793451509E0
2.059197829E0,-1.693641663E0,2.633911371E-1,-1.812982559E-2,1.714096165E0
2.064046891E0,-1.612045288E0,2.138775289E-1,-1.573085785E-2,1.626247542E0
2.068895902E0,-1.614468575E0,1.816262305E-1,-4.492902756E-2,1.625273972E0
2.073744912E0,-1.614758492E0,1.450847983E-1,-6.743240356E-2,1.622665004E0
2.078593974E0,-1.596240997E0,6.358763576E-2,-1.095614433E-1,1.601259635E0
2.083442985E0,-1.515999794E0,2.311336994E-2,-1.474237442E-1,1.523326414E0
2.088291995E0,-1.424387932E0,6.882160902E-3,-1.931219101E-1,1.437436752E0
2.093141058E0,-1.357213020E0,-1.394090056E-2,-2.394151688E-1,1.378238424E0
2.097990068E0,-1.328760147E0,-5.146624148E-2,-2.910981178E-1,1.361245906E0
2.102839131E0,-1.317495346E0,-6.288202107E-2,-3.124232292E-1,1.355491206E0
2.107688141E0,-1.287643433E0,-7.474647462E-2,-3.704357147E-1,1.341952035E0
2.112537152E0,-1.222563744E0,-7.517427206E-2,-4.746525288E-1,1.313624110E0
2.117386214E0,-1.177259445E0,-9.534546733E-2,-6.035072803E-1,1.326367821E0
2.122235224E0,-1.144498825E0,-9.462961555E-2,-7.592790127E-1,1.376712368E0
2.127084235E0,-1.076445580E0,-8.987803757E-2,-9.011926651E-1,1.406755617E0
2.131933297E0,-1.054351807E0,-9.773114324E-2,-1.053160191E0,1.493437476E0
2.136782308E0,-1.006412506E0,-1.181063503E-1,-1.234102964E0,1.596817262E0
2.141631318E0,-9.540367126E-1,-1.197396368E-1,-1.386397123E0,1.687193117E0
2.146480381E0,-8.517379761E-1,-1.287481487E-1,-1.548050165E0,1.771579233E0
2.151329391E0,-7.257118225E-1,-1.043160856E-1,-1.711542130E0,1.861965616E0
2.156178454E0,-6.235752106E-1,-9.187853336E-2,-1.828756809E0,1.934331713E0
2.161027464E0,-5.642004013E-1,-8.668561280E-2,-1.932884693E0,2.015410560E0
2.165876474E0,-4.733085632E-1,-5.542881787E-2,-1.992581367E0,2.048773744E0
2.170725537E0,-4.033565521E-1,-3.649848700E-2,-2.050635099E0,2.090247105E0
2.175574547E0,-3.041191101E-1,-1.080822945E-2,-2.083102703E0,2.105213082E0
2.180423558E0,-1.947069168E-1,3.354832530E-2,-2.099489212E0,2.108765332E0
2.185272620E0,-1.061639786E-1,2.955719829E-2,-2.071131945E0,2.074061704E0
2.190121631E0,-1.689720154E-2,2.726003528E-2,-2.000389814E0,2.000646904E0
2.194970693E0,1.341915131E-2,7.386863232E-3,-1.904011011E0,1.904072627E0
2.199819704E0,1.357269287E-2,-1.383438706E-2,-1.770059347E0,1.770165444E0
2.204668714E0,7.421493530E-3,-4.139667749E-2,-1.617844105E0,1.618390655E0
2.209517777E0,5.688190460E-2,-8.020263910E-2,-1.505021811E0,1.508230309E0
2.214366787E0,1.353702545E-1,-1.373849809E-1,-1.386509895E0,1.399860503E0
2.219215849E0,2.235383987E-1,-2.198484242E-1,-1.346259594E0,1.382287105E0
2.224064860E0,3.211545944E-1,-3.057767451E-1,-1.305735111E0,1.378979286E0
2.228913870E0,3.492689133E-1,-4.068390131E-1,-1.258064985E0,1.367565086E0
2.233762933E0,3.461236954E-1,-5.537667274E-1,-1.222609997E0,1.386086002E0
2.238611943E0,3.475208282E-1,-6.506779194E-1,-1.194753885E0,1.404132945E0
2.243460954E0,3.128576279E-1,-7.786361575E-1,-1.164956808E0,1.435715336E0
2.248310016E0,2.637023926E-1,-8.871428967E-1,-1.149964571E0,1.476136845E0
2.253159027E0,2.908630371E-1,-1.028450727E0,-1.140142202E0,1.562765640E0
2.258008089E0,3.178815842E-1,-1.054174781E0,-1.120964050E0,1.571271324E0
2.262857099E0,2.852735519E-1,-1.129230976E0,-1.056223869E0,1.572308004E0
2.267706110E0,2.816705704E-1,-1.184204817E0,-9.958341122E-1,1.572693529E0
2.272555172E0,2.569532394E-1,-1.181013346E0,-8.870770931E-1,1.499240894E0
2.277404183E0,2.684907913E-1,-1.184296131E0,-7.825355530E-1,1.444647543E0
2.282253245E0,2.993946075E-1,-1.167625427E0,-6.752641201E-1,1.381654045E0
2.287102256E0,3.113365173E-1,-1.128737926E0,-5.511009693E-1,1.294098919E0
2.291951266E0,3.210277557E-1,-1.115465164E0,-4.316589832E-1,1.238406569E0
2.296800329E0,3.021373749E-1,-1.075567842E0,-3.122611046E-1,1.160017316E0
2.301649339E0,2.545690536E-1,-1.049921274E0,-1.812720299E-1,1.095444948E0
2.306498402E0,1.972713470E-1,-9.982492328E-1,-7.255506516E-2,1.020138105E0
2.311347412E0,1.586828232E-1,-9.495155811E-1,-2.474403381E-2,9.630017364E-1
2.316196422E0,1.982669830E-1,-8.728480339E-1,-1.184034348E-2,8.951612595E-1
2.321045485E0,2.417154312E-1,-8.279826045E-1,-5.314922333E-2,8.641796011E-1
2.325894495E0,3.057241440E-1,-7.599157095E-1,-1.199402809E-1,8.278434687E-1
2.330743558E0,3.282194138E-1,-7.189197540E-1,-2.024848461E-1,8.158270094E-1
2.335592568E0,3.595237732E-1,-6.644136906E-1,-2.981607914E-1,8.121593152E-1
2.340441579E0,3.686380386E-1,-6.346254945E-1,-3.996365070E-1,8.356750921E-1
2.345290641E0,3.700895309E-1,-6.271943450E-1,-5.280406475E-1,8.995365099E-1
2.350139652E0,3.926792145E-1,-6.278213859E-1,-6.280937195E-1,9.710089487E-1
2.354988714E0,4.555387497E-1,-6.051366329E-1,-7.522747517E-1,1.067531357E0
2.359837724E0,5.849962234E-1,-6.115733385E-1,-8.859121799E-1,1.225186892E0
2.364686735E0,6.807298660E-1,-6.538845301E-1,-1.007329702E0,1.380460524E0
2.369535797E0,7.596492767E-1,-6.792852879E-1,-1.099589825E0,1.499197555E0
2.374384808E0,8.219442368E-1,-7.162034512E-1,-1.150530338E0,1.585010969E0
2.379233870E0,8.725214005E-1,-7.644358873E-1,-1.200654984E0,1.669499389E0
2.384082881E0,9.640254974E-1,-8.237195611E-1,-1.192519665E0,1.740678668E0
2.388931943E0,1.022395134E0,-8.627764583E-1,-1.188272953E0,1.789320440E0
2.393780954E0,1.078785896E0,-8.743728399E-1,-1.135304689E0,1.793662067E0
2.398629964E0,1.125998497E0,-8.872281909E-1,-1.062456608E0,1.784337558E0
2.403479027E0,1.116149426E0,-8.823351264E-1,-1.005888939E0,1.742445802E0
2.408328037E0,1.068351269E0,-8.695125580E-1,-9.323279858E-1,1.663328589E0
2.413177047E0,1.013481140E0,-8.442811966E-1,-8.566157818E-1,1.572814470E0
2.418026110E0,9.680118561E-1,-7.805120945E-1,-7.984116077E-1,1.477737182E0
2.422875120E0,1.003333092E0,-7.619405389E-1,-8.226633072E-1,1.504661289E0
2.427724183E0,1.030844212E0,-7.002021074E-1,-8.243043423E-1,1.494121959E0
2.432573193E0,1.052999020E0,-6.646327376E-1,-8.510334492E-1,1.508244524E0
2.437422256E0,1.072277069E0,-6.122342348E-1,-8.787355423E-1,1.515514772E0
2.442271266E0,1.045826912E0,-5.813000798E-1,-8.880095482E-1,1.490041835E0
2.447120277E0,1.057349682E0,-5.335296392E-1,-9.266088009E-1,1.503744026E0
2.451969339E0,1.090157032E0,-4.880386591E-1,-9.512610435E-1,1.526932107E0
2.456818349E0,1.129916191E0,-4.207240939E-1,-1.004944324E0,1.569596272E0
2.461667412E0,1.152863503E0,-3.865456581E-1,-1.034777880E0,1.596645565E0
2.466516422E0,1.168752193E0,-3.637553453E-1,-1.050034761E0,1.612722121E0
2.471365485E0,1.160944939E0,-3.237035871E-1,-1.057753086E0,1.603564390E0
2.476214495E0,1.141550064E0,-2.639065981E-1,-1.064879179E0,1.583272215E0
2.481063558E0,1.151191711E0,-2.321522236E-1,-1.018871546E0,1.554746358E0
2.485912568E0,1.154028893E0,-2.091485262E-1,-9.914245605E-1,1.535724080E0
2.490761579E0,1.166814327E0,-1.566133499E-1,-9.227659702E-1,1.495820996E0
2.495610641E0,1.151372910E0,-9.372544289E-2,-8.629963398E-1,1.441945463E0
2.500459652E0,1.112487316E0,-6.838756800E-2,-7.524716854E-1,1.344811706E0
2.505308714E0,1.042967319E0,-4.012906551E-2,-6.606557369E-1,1.235255914E0
2.510157724E0,9.808807373E-1,3.603690863E-2,-5.687754154E-1,1.134429880E0
2.515006735E0,9.331111908E-1,1.216781139E-1,-4.940998554E-1,1.062843697E0
2.519855797E0,9.136848450E-1,2.261430025E-1,-4.658448696E-1,1.050224784E0
2.524704808E0,9.199237823E-1,2.991300225E-1,-4.175474644E-1,1.053605439E0
2.529553870E0,9.922547340E-1,3.837049007E-1,-4.211816788E-1,1.144199683E0
2.534402881E0,1.046873093E0,4.367554188E-1,-4.410030842E-1,1.217038327E0
2.539251943E0,1.074197292E0,5.084927082E-1,-4.484596252E-1,1.270267961E0
2.544100954E0,1.098218441E0,5.056654811E-1,-5.222389698E-1,1.317009819E0
2.548950016E0,1.147612572E0,5.598666668E-1,-6.048848629E-1,1.412922856E0
2.553799027E0,1.210524082E0,5.971008539E-1,-7.199857235E-1,1.529796531E0
2.558648037E0,1.236898899E0,6.198911667E-1,-8.528883457E-1,1.625300734E0
2.563497099E0,1.310585499E0,6.308795214E-1,-9.745233059E-1,1.750810953E0
2.568346110E0,1.348041058E0,6.374147534E-1,-1.087028742E0,1.845303158E0
2.573195172E0,1.402044296E0,6.254261136E-1,-1.194884300E0,1.945413715E0
2.578044183E0,1.384343624E0,6.427885890E-1,-1.321676493E0,2.019012925E0
2.582893245E0,1.395545959E0,6.750887036E-1,-1.390582085E0,2.082549355E0
2.587742256E0,1.354534149E0,6.817975640E-1,-1.422928572E0,2.079503883E0
2.592591266E0,1.290114403E0,7.082005739E-1,-1.447305202E0,2.064130707E0
2.597440329E0,1.173763275E0,7.636328936E-1,-1.415720224E0,1.991260700E0
2.602289339E0,1.022382736E0,7.832707763E-1,-1.368633270E0,1.879344725E0
2.607138402E0,9.195733070E-1,8.098589182E-1,-1.315675259E0,1.797912100E0
2.611987412E0,7.410850525E-1,8.597826958E-1,-1.256707430E0,1.693442324E0
2.616836474E0,5.634498596E-1,8.753577471E-1,-1.170252323E0,1.566275017E0
2.621685485E0,3.865251541E-1,8.660203218E-1,-1.104385376E0,1.455699128E0
2.626534547E0,2.150001526E-1,8.795217276E-1,-1.009087324E0,1.355743620E0
2.631383558E0,5.123615265E-2,8.299185038E-1,-9.489462376E-1,1.261700768E0
2.636232620E0,-1.071653366E-1,7.986778021E-1,-8.570444584E-1,1.176391025E0
2.641081631E0,-2.649536133E-1,7.357258797E-1,-7.739927769E-1,1.100253519E0
2.645930641E0,-4.269218445E-1,6.913158894E-1,-6.663649082E-1,1.050819733E0
2.650779704E0,-5.859689713E-1,6.821019650E-1,-5.558435917E-1,1.057158845E0
2.655628714E0,-7.064104080E-1,6.460471153E-1,-4.666450024E-1,1.064964834E0
2.660477777E0,-8.074750900E-1,6.072008610E-1,-4.060277939E-1,1.088837672E0
2.665326787E0,-9.107685089E-1,5.632665157E-1,-3.215665817E-1,1.118111583E0
2.670175849E0,-9.732646942E-1,5.287746191E-1,-2.538971901E-1,1.136358458E0
2.675024860E0,-1.038072586E0,4.893863201E-1,-1.720271111E-1,1.160468436E0
2.679873922E0,-1.167294502E0,4.307748079E-1,-1.046574116E-1,1.248637883E0
2.684722933E0,-1.284414291E0,3.721013069E-1,-1.839303970E-2,1.337354762E0
2.689571995E0,-1.375144005E0,3.015590906E-1,1.977682114E-2,1.407959531E0
2.694421006E0,-1.451493263E0,2.359863520E-1,6.241273880E-2,1.471875539E0
2.699270016E0,-1.501521111E0,1.658935547E-1,1.167116165E-1,1.515159371E0
2.704119079E0,-1.549107552E0,1.248803139E-1,1.636071205E-1,1.562720893E0
2.708968089E0,-1.575226784E0,4.851806164E-2,2.435235977E-1,1.594677762E0
2.713817152E0,-1.642028809E0,1.329135895E-2,3.181595802E-1,1.672620933E0
2.718666162E0,-1.735144615E0,-5.012953281E-2,3.731112480E-1,1.775514520E0
2.723515224E0,-1.749572754E0,-7.713818550E-2,4.272017479E-1,1.802624879E0
2.728364235E0,-1.776334763E0,-1.608922482E-1,4.610428810E-1,1.842230182E0
2.733213297E0,-1.784412384E0,-2.438318133E-1,4.577913284E-1,1.858266507E0
2.738062308E0,-1.819196701E0,-3.162717819E-1,4.557485580E-1,1.901896744E0
2.742911370E0,-1.842365265E0,-4.188725948E-1,4.837121964E-1,1.950318310E0
2.747760381E0,-1.856255531E0,-5.060769916E-1,4.963741302E-1,1.987004226E0
2.752609443E0,-1.856067657E0,-5.993009806E-1,5.033712387E-1,2.014331507E0
2.757458454E0,-1.865598679E0,-6.864555478E-1,5.240349770E-1,2.055794811E0
2.762307516E0,-1.867975235E0,-7.602748871E-1,5.347280502E-1,2.086452365E0
2.767156527E0,-1.882239342E0,-8.446638584E-1,5.499701500E-1,2.135122746E0
2.772005537E0,-1.927330017E0,-9.084910154E-1,5.748434067E-1,2.206898698E0
2.776854599E0,-1.981657982E0,-9.757261276E-1,5.759882927E-1,2.282711621E0
2.781703610E0,-2.018891335E0,-1.029662609E0,5.750479698E-1,2.338120501E0
2.786552672E0,-2.017501831E0,-1.070287704E0,6.008071899E-1,2.361524653E0
2.791401683E0,-2.020476341E0,-1.088166475E0,6.462497711E-1,2.384128707E0
2.796250745E0,-2.015859604E0,-1.090617657E0,7.137837410E-1,2.400546614E0
2.801099756E0,-2.053849220E0,-1.094643116E0,7.580027580E-1,2.447674070E0
2.805948818E0,-2.122475624E0,-1.105381250E0,7.932796478E-1,2.521123377E0
2.810797829E0,-2.178730965E0,-1.132570624E0,8.172044754E-1,2.587935082E0
2.815646891E0,-2.196324348E0,-1.197850466E0,8.657474518E-1,2.647301462E0
2.820495902E0,-2.158527374E0,-1.229401946E0,8.840675354E-1,2.636711015E0
2.825344964E0,-2.093918800E0,-1.260605812E0,9.466185570E-1,2.621013096E0
2.830193974E0,-1.985750198E0,-1.305715561E0,1.012861252E0,2.583405677E0
2.835043037E0,-1.884175301E0,-1.314489722E0,1.080570698E0,2.538825088E0
2.839892047E0,-1.755769730E0,-1.325074792E0,1.187876225E0,2.499920093E0
2.844741110E0,-1.588726044E0,-1.299214005E0,1.303466797E0,2.431261640E0
2.849590120E0,-1.392807961E0,-1.246540785E0,1.467646122E0,2.376502279E0
2.854439183E0,-1.194655418E0,-1.155340791E0,1.636703014E0,2.332554537E0
2.859288193E0,-9.921989441E-1,-1.025968194E0,1.810019016E0,2.305046273E0
2.864137256E0,-7.952747345E-1,-8.539863825E-1,1.944054604E0,2.267400041E0
2.868986266E0,-6.041326523E-1,-7.162687778E-1,2.052711964E0,2.256467068E0
2.873835329E0,-4.428930283E-1,-5.796731710E-1,2.099741936E0,2.222856589E0
2.878684339E0,-2.925062180E-1,-4.635870755E-1,2.070719719E0,2.142044122E0
2.883533402E0,-1.387338638E-1,-3.778041899E-1,1.979898453E0,2.020391292E0
2.888382412E0,8.830070496E-3,-3.104248643E-1,1.853600025E0,1.879434654E0
2.893231474E0,1.262264252E-1,-2.831467986E-1,1.710859776E0,1.738719756E0
2.898080485E0,2.374334335E-1,-3.104664981E-1,1.516007423E0,1.565580592E0
2.902929547E0,3.498201370E-1,-3.541558385E-1,1.312554359E0,1.403780408E0
2.907778558E0,4.421205521E-1,-4.332873225E-1,1.093861580E0,1.256877736E0
2.912627620E0,5.265855789E-1,-5.118123293E-1,8.796224594E-1,1.145853352E0
2.917476631E0,5.772171021E-1,-6.134214401E-1,6.512465477E-1,1.064700668E0
2.922325693E0,6.420936584E-1,-7.257699370E-1,4.307079315E-1,1.060441224E0
2.927174704E0,7.261657715E-1,-8.171811700E-1,2.182893753E-1,1.114787892E0
2.932023766E0,7.602806091E-1,-9.064319134E-1,3.572559357E-2,1.183605397E0
2.936872777E0,7.924003601E-1,-1.007568121E0,-1.073293686E-1,1.286317007E0
2.941721787E0,7.652359009E-1,-1.086834431E0,-2.586998940E-1,1.354149437E0
2.946570849E0,7.649736404E-1,-1.144157648E0,-3.799910545E-1,1.427821626E0
2.951419860E0,7.032232285E-1,-1.174884200E0,-4.687740803E-1,1.447281911E0
2.956268922E0,6.422376633E-1,-1.200592399E0,-5.035150051E-1,1.451695107E0
2.961117985E0,6.249752045E-1,-1.214066505E0,-5.465106964E-1,1.470790749E0
2.965966995E0,5.987329483E-1,-1.229734659E0,-5.525088310E-1,1.475125243E0
2.970816058E0,5.324640274E-1,-1.254980683E0,-5.358712673E-1,1.464804585E0
2.975665068E0,4.548530579E-1,-1.223053694E0,-5.325424671E-1,1.409380403E0
2.980514131E0,3.872642517E-1,-1.205949545E0,-5.547130108E-1,1.382748867E0
2.985363141E0,3.105058670E-1,-1.175042391E0,-5.761804581E-1,1.345036220E0
2.990212204E0,2.938251495E-1,-1.154282928E0,-6.257014275E-1,1.345438431E0
2.995061214E0,2.678127289E-1,-1.112534165E0,-6.650819778E-1,1.323552025E0
2.999910224E0,2.849779129E-1,-1.107023716E0,-7.303359509E-1,1.356504523E0
3.004759287E0,3.261451721E-1,-1.058704495E0,-7.927610874E-1,1.362239342E0
3.009608349E0,3.553590775E-1,-1.053509474E0,-8.645033836E-1,1.408377927E0
3.014457360E0,3.941726685E-1,-9.909467697E-1,-9.407248497E-1,1.422079757E0
3.019306422E0,4.353942871E-1,-9.498596787E-1,-9.856178761E-1,1.436399733E0
3.024155433E0,5.291519165E-1,-9.301429391E-1,-1.001712561E0,1.465808887E0
3.029004495E0,6.107988358E-1,-8.839249015E-1,-1.032191753E0,1.489905455E0
3.033853506E0,7.089548111E-1,-8.539966345E-1,-1.034228563E0,1.517087966E0
3.038702568E0,8.068304062E-1,-8.092544079E-1,-1.034239769E0,1.541272170E0
3.043551579E0,9.139232635E-1,-7.951194644E-1,-1.008461237E0,1.576218500E0
3.048400641E0,1.001562595E0,-7.731536627E-1,-9.975626469E-1,1.611218624E0
3.053249652E0,1.100808144E0,-7.814906240E-1,-9.777109623E-1,1.666860789E0
3.058098714E0,1.206867695E0,-7.984626889E-1,-9.393844604E-1,1.725258086E0
3.062947724E0,1.300632000E0,-8.001108766E-1,-8.993186951E-1,1.772172432E0
3.067796787E0,1.382086277E0,-8.341829777E-1,-8.695464134E-1,1.833612468E0
3.072645797E0,1.448908806E0,-8.790792823E-1,-7.997920513E-1,1.873975570E0
3.077494860E0,1.498742580E0,-9.108443856E-1,-7.355008125E-1,1.901796062E0
3.082343870E0,1.567428112E0,-8.841871619E-1,-6.528003216E-1,1.914357878E0
3.087192933E0,1.609587193E0,-8.995168209E-1,-5.874605179E-1,1.935203168E0
3.092041943E0,1.641970158E0,-8.948911428E-1,-5.513801575E-1,1.949593864E0
3.096891006E0,1.624059677E0,-8.825780153E-1,-5.084421635E-1,1.917036051E0
3.101740068E0,1.608551025E0,-8.628184199E-1,-4.656572342E-1,1.883806966E0
3.106589079E0,1.583524704E0,-8.669502735E-1,-4.348561764E-1,1.856947269E0
3.111438141E0,1.525146961E0,-8.260403275E-1,-4.516913891E-1,1.792328370E0
3.116287152E0,1.517138481E0,-7.737078071E-1,-4.610173702E-1,1.764332723E0
3.121136214E0,1.497358322E0,-7.555701733E-1,-4.722547531E-1,1.742410050E0
3.125985224E0,1.468290806E0,-7.214294076E-1,-5.043547153E-1,1.711932230E0
3.130834287E0,1.465837955E0,-6.832681894E-1,-5.500080585E-1,1.708228672E0
3.135683297E0,1.466145515E0,-6.791740656E-1,-5.899498463E-1,1.720145606E0
3.140532360E0,1.445368767E0,-6.779842377E-1,-6.145353317E-1,1.710674479E0
3.145381370E0,1.420328617E0,-6.748650074E-1,-6.427803040E-1,1.698806251E0
3.150230433E0,1.379141331E0,-6.266846657E-1,-6.745848656E-1,1.658260903E0
3.155079443E0,1.360095978E0,-6.267172098E-1,-7.122468948E-1,1.658291642E0
3.159928506E0,1.286733150E0,-6.030464768E-1,-7.175004482E-1,1.591902681E0
3.164777568E0,1.230817795E0,-5.891302228E-1,-7.262153625E-1,1.545760530E0
3.169626579E0,1.178001881E0,-5.610001087E-1,-7.001321316E-1,1.480741218E0
3.174475641E0,1.121003151E0,-5.162647963E-1,-6.944813728E-1,1.416150339E0
3.179324652E0,1.043096542E0,-4.692727625E-1,-6.375672817E-1,1.309488206E0
3.184173714E0,9.728817940E-1,-4.485821724E-1,-5.918107033E-1,1.223913747E0
3.189022724E0,9.317297935E-1,-3.943759501E-1,-5.550591946E-1,1.154011918E0
3.193871787E0,8.621816635E-1,-3.472079337E-1,-4.940223694E-1,1.052600908E0
3.198720797E0,7.354736328E-1,-3.023717403E-1,-4.137868881E-1,8.964205055E-1
3.203569860E0,5.969915390E-1,-2.716845870E-1,-3.384959698E-1,7.380995421E-1
3.208418870E0,5.014858246E-1,-2.144371271E-1,-2.757980824E-1,6.111758307E-1
3.213267933E0,5.108880997E-1,-1.878339648E-1,-2.594261169E-1,6.029843770E-1
3.218116995E0,5.007209778E-1,-1.341824532E-1,-2.369768620E-1,5.699863695E-1
3.222966006E0,5.211324692E-1,-1.299201846E-1,-2.420527935E-1,5.891076809E-1
3.227815068E0,4.885082245E-1,-8.166056871E-2,-2.578027248E-1,5.583645573E-1
3.232664079E0,4.841585159E-1,-5.400997400E-2,-2.770459652E-1,5.604293110E-1
3.237513141E0,4.912996292E-1,-6.134891510E-2,-2.806777954E-1,5.691388582E-1
3.242362152E0,4.932861328E-1,-2.720493078E-2,-3.019714355E-1,5.790147364E-1
3.247211214E0,5.236482620E-1,2.881467342E-3,-3.120446205E-1,6.095798966E-1
3.252060224E0,5.632963181E-1,3.856289387E-2,-3.346734047E-1,6.563506125E-1
3.256909287E0,5.716705322E-1,4.155147076E-2,-3.290543556E-1,6.609164025E-1
3.261758297E0,5.942993164E-1,7.878434658E-2,-3.356502056E-1,6.870660167E-1
3.266607360E0,6.145124435E-1,1.023791432E-1,-2.945358753E-1,6.890997127E-1
3.271456422E0,5.773372650E-1,1.170906425E-1,-2.440419197E-1,6.376401765E-1
3.276305433E0,5.617322922E-1,1.132450104E-1,-1.649842262E-1,5.963114919E-1
3.281154495E0,5.532789230E-1,1.243463159E-1,-7.184672356E-2,5.716130900E-1
3.286003506E0,5.686655045E-1,1.359775662E-1,1.853466034E-3,5.846997433E-1
3.290852568E0,5.839290619E-1,1.577758789E-1,9.668064117E-2,6.125467522E-1
3.295701579E0,5.775699615E-1,1.085996628E-1,1.433119774E-1,6.049126136E-1
3.300550641E0,5.807952881E-1,8.886015415E-2,1.946520805E-1,6.189577741E-1
3.305399652E0,5.196847916E-1,7.690519094E-2,2.319660187E-1,5.742777419E-1
3.310248714E0,4.207057953E-1,7.729399204E-2,2.746200562E-1,5.083147673E-1
3.315097777E0,3.317832947E-1,9.219658375E-2,3.061022758E-1,4.607374176E-1
3.319946787E0,2.505578995E-1,1.382459998E-1,3.002548218E-1,4.147820819E-1
3.324795849E0,1.722717285E-1,1.580480933E-1,2.739386559E-1,3.601376618E-1
3.329644860E0,8.265590668E-2,1.873769164E-1,2.464780807E-1,3.204583467E-1
3.334493922E0,-1.104927063E-2,2.333783507E-1,2.299499512E-1,3.278178168E-1
3.339342985E0,-1.637754440E-1,2.743661404E-1,2.267985344E-1,3.918376580E-1
3.344191995E0,-2.942209244E-1,3.102818727E-1,2.250230312E-1,4.831937060E-1
3.349041058E0,-3.713884354E-1,3.531063199E-1,2.150006294E-1,5.557325919E-1
3.353890068E0,-4.408187866E-1,3.837876916E-1,2.181038857E-1,6.238457340E-1
3.358739131E0,-5.025300980E-1,4.263053238E-1,2.510311604E-1,7.051874729E-1
3.363588141E0,-5.995159149E-1,4.257594049E-1,2.684125900E-1,7.827743746E-1
3.368437204E0,-7.079000473E-1,4.370875359E-1,3.418123722E-1,8.994463234E-1
3.373286266E0,-8.492422104E-1,4.506300986E-1,4.088876247E-1,1.044733893E0
3.378135277E0,-9.734411240E-1,4.400947392E-1,4.765419960E-1,1.169770608E0
3.382984339E0,-1.013739586E0,4.701255262E-1,5.206074715E-1,1.232768469E0
3.387833349E0,-1.101758003E0,4.928784966E-1,5.504815578E-1,1.326585789E0
3.392682412E0,-1.196811676E0,4.940177798E-1,6.091890335E-1,1.430916851E0
3.397531422E0,-1.310908318E0,5.046284199E-1,6.487360001E-1,1.547252034E0
3.402380485E0,-1.391554832E0,4.960764050E-1,6.808524132E-1,1.626676569E0
3.407229547E0,-1.446093559E0,4.778736234E-1,7.124154568E-1,1.681393935E0
3.412078558E0,-1.469889641E0,5.385932922E-1,7.192571163E-1,1.722785271E0
3.416927620E0,-1.482164383E0,5.490834713E-1,6.940770149E-1,1.726281211E0
3.421776631E0,-1.480584145E0,5.739864111E-1,6.583132744E-1,1.719001506E0
3.426625693E0,-1.500985146E0,5.965201259E-1,6.192014217E-1,1.729798563E0
3.431474704E0,-1.521714211E0,5.546557307E-1,5.770127773E-1,1.719360597E0
3.436323766E0,-1.545069695E0,5.297314525E-1,5.200226307E-1,1.714140983E0
3.441172829E0,-1.561420441E0,5.240965486E-1,4.985947609E-1,1.720845060E0
3.446021839E0,-1.553950310E0,4.805066288E-1,4.675273895E-1,1.692403630E0
3.450870902E0,-1.563288689E0,4.326187372E-1,4.412312508E-1,1.680986470E0
3.455719912E0,-1.608504295E0,3.924124539E-1,4.269289970E-1,1.709836826E0
3.460568974E0,-1.648860931E0,2.978380322E-1,4.462816715E-1,1.733959975E0
3.465418037E0,-1.727365494E0,1.634388864E-1,4.490988255E-1,1.792259349E0
3.470267047E0,-1.760355949E0,4.432224482E-2,4.879260063E-1,1.827262794E0
3.475116110E0,-1.795593262E0,-4.270604253E-2,5.223450661E-1,1.870514190E0
3.479965120E0,-1.852153778E0,-1.789954305E-1,5.620369911E-1,1.943810320E0
3.484814183E0,-1.958580971E0,-2.593460679E-1,6.216106415E-1,2.071158997E0
3.489663245E0,-2.119453430E0,-3.676481843E-1,6.918416023E-1,2.259622277E0
3.494512256E0,-2.272545815E0,-4.396185577E-1,7.895274162E-1,2.445625175E0
3.499361318E0,-2.453710556E0,-5.113112926E-1,9.170496464E-1,2.668916406E0
3.504210329E0,-2.574523926E0,-5.661059618E-1,1.062366962E0,2.842054357E0
3.509059391E0,-2.659089088E0,-6.064090133E-1,1.186919689E0,2.974435244E0
3.513908454E0,-2.712319374E0,-6.774990559E-1,1.307268143E0,3.086200148E0
3.518757464E0,-2.760657310E0,-7.074972987E-1,1.418360472E0,3.183320223E0
3.523606527E0,-2.746822357E0,-7.154672146E-1,1.517676830E0,3.218737230E0
3.528455537E0,-2.668585777E0,-6.964693069E-1,1.545327663E0,3.161401135E0
3.533304599E0,-2.545164108E0,-6.718194485E-1,1.551587343E0,3.055589140E0
3.538153610E0,-2.364694595E0,-5.554211736E-1,1.589025021E0,2.902632206E0
3.543002672E0,-2.194128036E0,-4.311675727E-1,1.621859074E0,2.762341429E0
3.547851735E0,-1.988022804E0,-2.777157724E-1,1.654948235E0,2.601579209E0
3.552700745E0,-1.756142616E0,-1.049006283E-1,1.716512680E0,2.457937512E0
3.557549808E0,-1.503521919E0,1.204400361E-1,1.796298981E0,2.345586066E0
3.562398870E0,-1.204163551E0,2.953954339E-1,1.876760960E0,2.249333239E0
3.567247881E0,-8.964872360E-1,4.749789536E-1,1.895385742E0,2.149832896E0
3.572096943E0,-5.638771057E-1,6.638851166E-1,1.897312641E0,2.087701151E0
3.576945954E0,-2.232809067E-1,8.285558224E-1,1.891516447E0,2.077063693E0
3.581795016E0,9.424400330E-2,1.002320409E0,1.866035461E0,2.120286886E0
3.586644079E0,3.721437454E-1,1.158480406E0,1.785359621E0,2.160573256E0
3.591493089E0,6.152448654E-1,1.313468814E0,1.740236759E0,2.265425026E0
3.596342152E0,8.593502045E-1,1.483556628E0,1.648991585E0,2.378780421E0
3.601191162E0,1.082888603E0,1.634956360E0,1.520950317E0,2.481737273E0
3.606040224E0,1.295423508E0,1.736297488E0,1.363159657E0,2.559502936E0
3.610889287E0,1.458776951E0,1.813729286E0,1.156601906E0,2.599109864E0
3.615738297E0,1.580243587E0,1.823919177E0,8.918709755E-1,2.572797077E0
3.620587360E0,1.655169010E0,1.850409746E0,6.313350201E-1,2.561676129E0
3.625436422E0,1.714785576E0,1.845277071E0,3.561642170E-1,2.544089226E0
3.630285433E0,1.728186131E0,1.839575648E0,9.546589851E-2,2.525822560E0
3.635134495E0,1.764889717E0,1.811878324E0,-1.765720844E-1,2.535530807E0
3.639983506E0,1.758121490E0,1.745734692E0,-4.474306107E-1,2.517692384E0
3.644832568E0,1.739175320E0,1.679793358E0,-7.690954208E-1,2.537310443E0
3.649681631E0,1.679627895E0,1.564100742E0,-1.049969673E0,2.523885361E0
3.654530641E0,1.620319843E0,1.477781534E0,-1.280063152E0,2.539259012E0
3.659379704E0,1.573322773E0,1.375717640E0,-1.492489576E0,2.568164463E0
3.664228714E0,1.531507015E0,1.301161647E0,-1.725318193E0,2.648633277E0
3.669077777E0,1.439992905E0,1.239975333E0,-1.920905113E0,2.702035316E0
3.673926839E0,1.318031788E0,1.182762146E0,-2.098214626E0,2.745658155E0
3.678775849E0,1.160998344E0,1.124785304E0,-2.266540051E0,2.783929406E0
3.683624912E0,9.690494537E-1,1.051653981E0,-2.373064995E0,2.770644403E0
3.688473974E0,8.211956024E-1,9.920263290E-1,-2.441531658E0,2.760354197E0
3.693322985E0,6.863727570E-1,9.507461786E-1,-2.541134834E0,2.798641117E0
3.698172047E0,5.837402344E-1,9.350471497E-1,-2.607163668E0,2.830612694E0
3.703021058E0,4.846544266E-1,9.115610719E-1,-2.637073278E0,2.831958505E0
3.707870120E0,4.203481674E-1,9.018490911E-1,-2.618523598E0,2.801194423E0
3.712719183E0,3.382587433E-1,8.940954208E-1,-2.556190729E0,2.729090809E0
3.717568193E0,2.981567383E-1,8.883590102E-1,-2.457276106E0,2.629883083E0
3.722417256E0,2.474613190E-1,8.941088915E-1,-2.290637970E0,2.471374137E0
3.727266318E0,1.383686066E-1,9.396667480E-1,-2.039734364E0,2.250030165E0
3.732115329E0,3.768348694E-2,9.816428423E-1,-1.733839154E0,1.992797262E0
3.736964391E0,1.909637451E-2,1.041326761E0,-1.397894382E0,1.743225401E0
3.741813454E0,9.405899048E-2,1.092443228E0,-1.135669708E0,1.578614895E0
3.746662464E0,2.071094513E-1,1.108822346E0,-9.097747803E-1,1.449162334E0
3.751511527E0,3.053350449E-1,1.114536643E0,-7.089416981E-1,1.355735870E0
3.756360589E0,4.172048569E-1,1.105071068E0,-5.623714924E-1,1.308244493E0
3.761209599E0,5.258121490E-1,1.078110218E0,-4.656322002E-1,1.286706417E0
3.766058662E0,6.334838867E-1,1.019420624E0,-3.973233700E-1,1.264272954E0
3.770907672E0,7.306880951E-1,9.697366953E-1,-3.334350586E-1,1.259155784E0
3.775756735E0,8.270616531E-1,8.908402920E-1,-2.905054092E-1,1.249808304E0
3.780605797E0,9.203710556E-1,8.331038952E-1,-2.465677261E-1,1.265677930E0
3.785454808E0,9.963521957E-1,7.679703832E-1,-2.229201794E-1,1.277571765E0
3.790303870E0,1.086208344E0,6.645110846E-1,-1.761996746E-1,1.285484295E0
3.795152933E0,1.158947945E0,5.803163052E-1,-1.515779495E-1,1.304953343E0
3.800001943E0,1.248092175E0,4.844436944E-1,-1.034934521E-1,1.342807009E0
3.804851006E0,1.351281643E0,4.127690196E-1,-4.379820824E-2,1.413597759E0
3.809700068E0,1.411149502E0,3.438092470E-1,-2.028560638E-2,1.452569868E0
3.814549079E0,1.439743519E0,2.774517238E-1,2.932810783E-2,1.466526848E0
3.819398141E0,1.406048298E0,2.301911712E-1,1.289308071E-1,1.430588321E0
3.824247204E0,1.374616623E0,2.209358811E-1,2.018499374E-1,1.406814459E0
3.829096214E0,1.369231224E0,2.135878801E-1,2.334849834E-1,1.405321730E0
3.833945277E0,1.344429493E0,2.034282237E-1,2.118942738E-1,1.376144210E0
3.838794339E0,1.331313610E0,2.071220130E-1,1.730313301E-1,1.358394382E0
3.843643349E0,1.250984669E0,2.293673456E-1,8.820080757E-2,1.274892703E0
3.848492412E0,1.199066162E0,2.462770790E-1,1.947522163E-2,1.224251341E0
3.853341474E0,1.130139351E0,2.411808670E-1,-8.089089394E-2,1.158415513E0
3.858190485E0,1.044265747E0,3.003203869E-1,-2.079524994E-1,1.106312581E0
3.863039547E0,9.510717392E-1,3.257238269E-1,-3.137569427E-1,1.053127193E0
3.867888558E0,8.721408844E-1,3.605532646E-1,-4.005422592E-1,1.025213383E0
3.872737620E0,7.788238525E-1,3.762690425E-1,-4.801628590E-1,9.892933623E-1
3.877586683E0,6.855478287E-1,4.111223221E-1,-5.381119251E-1,9.636191328E-1
3.882435693E0,6.091375351E-1,4.387519956E-1,-5.693848133E-1,9.422053470E-1
3.887284756E0,4.636211395E-1,4.589937329E-1,-5.952942371E-1,8.831732767E-1
3.892133818E0,3.208208084E-1,4.765242636E-1,-5.822739601E-1,8.179513002E-1
3.896982829E0,1.807374954E-1,5.102247000E-1,-5.829131603E-1,7.954766113E-1
3.901831891E0,9.119319916E-2,5.289559364E-1,-5.636477470E-1,7.783375649E-1
3.906680954E0,1.391029358E-2,5.758988857E-1,-5.770206451E-1,8.153562705E-1
3.911529964E0,-8.222198486E-2,6.152142286E-1,-6.087281704E-1,8.693670038E-1
3.916379027E0,-1.924438477E-1,6.876128912E-1,-6.349577904E-1,9.555195017E-1
3.921228089E0,-2.905273438E-1,7.501018047E-1,-6.726346016E-1,1.048568625E0
3.926077099E0,-3.741941452E-1,8.218062520E-1,-7.196018696E-1,1.154648702E0
3.930926162E0,-4.268541336E-1,8.621345758E-1,-8.024396896E-1,1.252752942E0
3.935775224E0,-4.248247147E-1,8.901563883E-1,-8.904578686E-1,1.328822655E0
3.940624235E0,-4.328508377E-1,8.750715256E-1,-9.840719700E-1,1.386184571E0
3.945473297E0,-3.816747665E-1,8.719988465E-1,-1.073874950E0,1.435013946E0
3.950322360E0,-3.046941757E-1,8.165751100E-1,-1.164347410E0,1.454420277E0
3.955171370E0,-2.089881897E-1,7.902765870E-1,-1.190685511E0,1.444280143E0
3.960020433E0,-1.136102676E-1,7.764614224E-1,-1.245984077E0,1.472506691E0
3.964869495E0,-3.998279572E-2,7.512338758E-1,-1.272653103E0,1.478376434E0
3.969718558E0,-4.723548889E-3,7.529060841E-1,-1.311169863E0,1.511970996E0
3.974567568E0,2.095603943E-2,7.120448947E-1,-1.344628334E0,1.521667652E0
3.979416631E0,1.565456390E-2,6.908141971E-1,-1.329787731E0,1.498600924E0
3.984265693E0,1.770019531E-2,5.983408093E-1,-1.283313274E0,1.416057196E0
3.989114704E0,1.038932800E-2,5.281135440E-1,-1.233902693E0,1.342210009E0
3.993963766E0,1.291275024E-2,4.634788036E-1,-1.193404436E0,1.280309919E0
3.998812777E0,-4.644012451E-2,3.615158796E-1,-1.147524834E0,1.204019792E0
4.003661839E0,-1.172857285E-1,2.534139156E-1,-1.088846445E0,1.124082353E0
4.008510902E0,-2.402133942E-1,1.749953032E-1,-1.012562513E0,1.055276587E0
4.013359964E0,-4.079771042E-1,7.842552662E-2,-9.282464981E-1,1.016974652E0
4.018208974E0,-5.465116501E-1,-3.787279129E-4,-8.289606571E-1,9.929002458E-1
4.023058037E0,-6.272859573E-1,-8.759498596E-2,-7.676370144E-1,9.952020597E-1
4.027907099E0,-7.150363922E-1,-1.687247157E-1,-7.016139030E-1,1.015877523E0
4.032756110E0,-7.955360413E-1,-2.078001499E-1,-6.718935966E-1,1.061837794E0
4.037605172E0,-8.616561890E-1,-2.288598418E-1,-6.139771938E-1,1.082495362E0
4.042454235E0,-9.754877090E-1,-2.440644503E-1,-5.205268860E-1,1.132294999E0
4.047303245E0,-1.096297264E0,-1.985472441E-1,-4.368669987E-1,1.196721135E0
4.052152308E0,-1.212104797E0,-1.548322439E-1,-3.508882523E-1,1.271335372E0
4.057001370E0,-1.308615685E0,-1.275037527E-1,-2.458796501E-1,1.337605704E0
4.061850381E0,-1.393080711E0,-9.533309937E-2,-1.601440907E-1,1.405492226E0
4.066699443E0,-1.532413483E0,-9.211766720E-2,-6.960177422E-2,1.536756699E0
4.071548506E0,-1.671646118E0,-8.230662346E-2,1.852393150E-2,1.673773659E0
4.076397516E0,-1.818011284E0,-1.068454981E-1,5.880165100E-2,1.822097314E0
4.081246579E0,-1.993018150E0,-1.659058332E-1,2.267670631E-2,2.000040081E0
4.086095641E0,-2.156009674E0,-2.762466669E-1,-2.519989014E-2,2.173781261E0
4.090944704E0,-2.378653526E0,-4.473190308E-1,-1.205613613E-1,2.423349326E0
4.095793714E0,-2.538977623E0,-6.739435196E-1,-2.538456917E-1,2.639137146E0
4.100642777E0,-2.653718948E0,-8.934094310E-1,-3.652756214E-1,2.823797257E0
4.105491839E0,-2.739646912E0,-1.121960282E0,-4.574227333E-1,2.995612731E0
4.110340849E0,-2.827789307E0,-1.385475039E0,-5.302858353E-1,3.193295557E0
4.115189912E0,-2.915678978E0,-1.652316809E0,-5.982680321E-1,3.404300130E0
4.120038974E0,-2.993646622E0,-1.950591326E0,-6.374611855E-1,3.629474257E0
4.124888037E0,-3.011250496E0,-2.222394466E0,-6.618082523E-1,3.800612697E0
4.129737047E0,-3.011281967E0,-2.450470209E0,-6.612865925E-1,3.938263994E0
4.134586110E0,-2.988754272E0,-2.663073778E0,-6.092896461E-1,4.049178673E0
4.139435172E0,-2.886071205E0,-2.802273273E0,-5.198218822E-1,4.056150551E0
4.144284183E0,-2.741444588E0,-2.929778576E0,-4.334626198E-1,4.035716885E0
4.149133245E0,-2.693484306E0,-2.990420580E0,-2.856247425E-1,4.034731025E0
4.153982308E0,-2.744445801E0,-2.974925041E0,-6.427645683E-2,4.047998668E0
4.158831318E0,-2.796355247E0,-2.921980619E0,2.136371136E-1,4.050088175E0
4.163680381E0,-2.894904137E0,-2.817926884E0,4.974634647E-1,4.070460881E0
4.168529443E0,-2.959070206E0,-2.694762230E0,7.988345623E-1,4.081173436E0
4.173378506E0,-2.991637230E0,-2.519932270E0,1.133969545E0,4.072571533E0
4.178227516E0,-2.997745514E0,-2.332690954E0,1.485688210E0,4.078626572E0
4.183076579E0,-2.958665848E0,-2.155415058E0,1.807990074E0,4.082688548E0
4.187925641E0,-2.824631691E0,-1.967167139E0,2.049991131E0,4.006339274E0
4.192774652E0,-2.567325592E0,-1.849580050E0,2.232774496E0,3.872646254E0
4.197623714E0,-2.256260872E0,-1.738111377E0,2.370596170E0,3.705599882E0
4.202472777E0,-1.927362442E0,-1.620888710E0,2.463474274E0,3.522884002E0
4.207321839E0,-1.611669540E0,-1.557657957E0,2.499610186E0,3.357354330E0
4.212170849E0,-1.335428238E0,-1.553186417E0,2.471963406E0,3.210351959E0
4.217019912E0,-1.027049065E0,-1.559594989E0,2.404075384E0,3.044132843E0
4.221868974E0,-7.679452896E-1,-1.584096193E0,2.274168015E0,2.875924352E0
4.226717985E0,-4.481067657E-1,-1.635980964E0,2.127669096E0,2.721067652E0
4.231567047E0,-1.201362610E-1,-1.726888061E0,1.959835768E0,2.614867364E0
4.236416110E0,1.826305389E-1,-1.820520401E0,1.744622231E0,2.528112967E0
4.241265172E0,4.747409821E-1,-1.923688889E0,1.520674706E0,2.497680824E0
4.246114183E0,7.087059021E-1,-2.024050713E0,1.314945698E0,2.515576978E0
4.250963245E0,9.063730240E-1,-2.116576433E0,1.137592316E0,2.568175254E0
4.255812308E0,1.120609283E0,-2.174735308E0,9.939289093E-1,2.640669139E0
4.260661318E0,1.306083202E0,-2.241421223E0,8.769395351E-1,2.738401975E0
4.265510381E0,1.462924480E0,-2.263809681E0,7.533042431E-1,2.798651388E0
4.270359443E0,1.650938988E0,-2.354119062E0,6.087155342E-1,2.939049286E0
4.275208506E0,1.745894909E0,-2.359300613E0,4.290688038E-1,2.966234727E0
4.280057516E0,1.740855217E0,-2.363362312E0,3.558027744E-1,2.956797917E0
4.284906579E0,1.731576920E0,-2.361889839E0,3.077504635E-1,2.944756796E0
4.289755641E0,1.708405018E0,-2.269215107E0,2.584459782E-1,2.852153437E0
4.294604652E0,1.740509033E0,-2.162165165E0,2.266962528E-1,2.784909529E0
4.299453714E0,1.751235008E0,-2.014659405E0,1.644432545E-1,2.674456609E0
4.304302777E0,1.819347382E0,-1.900954366E0,9.295535088E-2,2.632924817E0
4.309151839E0,1.851490974E0,-1.799724102E0,1.428127289E-4,2.582058422E0
4.314000849E0,1.799855232E0,-1.701661110E0,-8.298373222E-2,2.478309038E0
4.318849912E0,1.793529987E0,-1.597491264E0,-1.493594646E-1,2.406457231E0
4.323698974E0,1.849173546E0,-1.532539725E0,-2.612180710E-1,2.415855065E0
4.328548037E0,1.957142830E0,-1.468409657E0,-4.137787819E-1,2.481501130E0
4.333397047E0,2.081495762E0,-1.438155413E0,-6.000034809E-1,2.600176874E0
4.338246110E0,2.219881058E0,-1.381674170E0,-7.887251377E-1,2.731113833E0
4.343095172E0,2.312589169E0,-1.353794813E0,-9.607195854E-1,2.846719372E0
4.347944235E0,2.388462067E0,-1.371154547E0,-1.110966921E0,2.969690781E0
4.352793245E0,2.399821758E0,-1.333282590E0,-1.236872435E0,3.011086242E0
4.357642308E0,2.442462444E0,-1.307108879E0,-1.376406908E0,3.093323842E0
4.362491370E0,2.492547512E0,-1.256527185E0,-1.517399073E0,3.177129776E0
4.367340433E0,2.585992813E0,-1.214866757E0,-1.638179898E0,3.293462228E0
4.372189443E0,2.655872822E0,-1.191484213E0,-1.750640750E0,3.396768775E0
4.377038506E0,2.661621571E0,-1.191149831E0,-1.852307439E0,3.454578144E0
4.381887568E0,2.620033741E0,-1.151778221E0,-1.912135363E0,3.442009808E0
4.386736631E0,2.574094296E0,-1.099822402E0,-1.963819623E0,3.419379808E0
4.391585641E0,2.533294201E0,-1.040185094E0,-1.990799665E0,3.385682774E0
4.396434704E0,2.535803795E0,-9.345562458E-1,-1.983705759E0,3.352429686E0
4.401283766E0,2.576720238E0,-8.665129542E-1,-1.995339751E0,3.372197000E0
4.406132829E0,2.605803490E0,-7.903690934E-1,-2.028115749E0,3.395312743E0
4.410981839E0,2.620714664E0,-7.085047364E-1,-2.081899643E0,3.421173839E0
4.415830902E0,2.530732155E0,-6.233984232E-1,-2.111035585E0,3.354057554E0
4.420679964E0,2.441223621E0,-5.018158555E-1,-2.103313923E0,3.261184046E0
4.425529027E0,2.347420216E0,-3.895050883E-1,-2.084972382E0,3.163732877E0
4.430378037E0,2.273224354E0,-2.246624231E-1,-2.012936354E0,3.044656784E0
4.435227099E0,2.201956749E0,-8.164930344E-2,-1.941998839E0,2.937114166E0
4.440076162E0,2.140739918E0,5.601531267E-2,-1.814862490E0,2.807068038E0
4.444925172E0,2.077570438E0,2.167687416E-1,-1.705743432E0,2.696821883E0
4.449774235E0,2.024332523E0,3.549605608E-1,-1.566970944E0,2.584437483E0
4.454623297E0,1.906830311E0,4.751563370E-1,-1.446611404E0,2.440176210E0
4.459472360E0,1.796694279E0,5.748014450E-1,-1.316332579E0,2.300269221E0
4.464321422E0,1.703342915E0,6.634803414E-1,-1.171744108E0,2.171305484E0
4.469170433E0,1.605082512E0,7.029583454E-1,-9.774761200E-1,2.006464520E0
4.474019495E0,1.465927601E0,7.505424023E-1,-8.033008575E-1,1.832361836E0
4.478868558E0,1.300188541E0,7.487949133E-1,-6.088151932E-1,1.619209685E0
4.483717620E0,1.122159004E0,7.719380260E-1,-4.755508900E-1,1.442663438E0
4.488566631E0,9.820318222E-1,7.554669976E-1,-3.843803406E-1,1.297252917E0
4.493415693E0,8.511028290E-1,7.856254578E-1,-3.495748043E-1,1.209870212E0
4.498264756E0,7.079620361E-1,7.669675350E-1,-3.660249710E-1,1.106084863E0
4.503113818E0,6.124572754E-1,7.427943945E-1,-3.784925938E-1,1.034458346E0
4.507962829E0,4.523763657E-1,6.609158516E-1,-4.008994102E-1,8.956419353E-1
4.512811891E0,2.709159851E-1,5.955755115E-1,-4.353592396E-1,7.859028746E-1
4.517660954E0,1.040763855E-1,4.990042746E-1,-4.337117672E-1,6.692854825E-1
4.522510016E0,-5.285263062E-2,4.262726605E-1,-4.483363628E-1,6.208923223E-1
4.527359079E0,-2.046060562E-1,3.726907074E-1,-4.360361099E-1,6.090069711E-1
4.532208089E0,-3.440399170E-1,3.408769369E-1,-4.064836502E-1,6.322891020E-1
4.537057152E0,-4.329557419E-1,3.263779879E-1,-3.717310429E-1,6.573866698E-1
4.541906214E0,-5.025024414E-1,3.223366737E-1,-3.318653107E-1,6.830404229E-1
4.546755277E0,-6.124448776E-1,3.074088395E-1,-2.558183670E-1,7.314587887E-1
4.551604287E0,-7.484388351E-1,3.173300326E-1,-1.461229324E-1,8.259606231E-1
4.556453349E0,-8.842105865E-1,3.328723609E-1,-3.879523277E-2,9.455884095E-1
4.561302412E0,-1.005502701E0,3.706071675E-1,5.161786079E-2,1.072869870E0
4.566151474E0,-1.140960693E0,4.278840125E-1,1.181421280E-1,1.224268596E0
4.571000485E0,-1.288069725E0,5.019835234E-1,1.707055569E-1,1.392929094E0
4.575849547E0,-1.437200546E0,5.542696714E-1,2.621040344E-1,1.562516817E0
4.580698610E0,-1.600277901E0,6.012407541E-1,3.111209869E-1,1.737577645E0
4.585547672E0,-1.755672455E0,6.617736220E-1,3.468217850E-1,1.908039687E0
4.590396735E0,-1.917674065E0,7.068237066E-1,3.909294605E-1,2.080841035E0
4.595245745E0,-2.100542068E0,7.314639688E-1,4.412949085E-1,2.267610574E0
4.600094808E0,-2.292310715E0,7.259386778E-1,5.098626614E-1,2.457973822E0
4.604943870E0,-2.428494453E0,7.403314114E-1,5.773572922E-1,2.603654615E0
4.609792933E0,-2.576143265E0,7.077994347E-1,6.483676434E-1,2.749158919E0
4.614641943E0,-2.716231346E0,6.881979704E-1,7.178063393E-1,2.892537833E0
4.619491006E0,-2.810646057E0,6.553178430E-1,8.163845539E-1,2.999275992E0
4.624340068E0,-2.864375114E0,6.475926638E-1,9.340348244E-1,3.081629781E0
4.629189131E0,-2.827477455E0,6.127104759E-1,1.012733459E0,3.065236034E0
4.634038193E0,-2.779077530E0,5.820233226E-1,1.073531628E0,3.035538374E0
4.638887204E0,-2.731258392E0,5.534698963E-1,1.127975225E0,3.006398084E0
4.643736266E0,-2.638696671E0,5.416626930E-1,1.137491703E0,2.924039324E0
4.648585329E0,-2.525466919E0,4.989125729E-1,1.149505138E0,2.819265681E0
4.653434391E0,-2.391696930E0,4.827540517E-1,1.173171043E0,2.707322658E0
4.658283454E0,-2.278080940E0,5.003722906E-1,1.141384125E0,2.596686912E0
4.663132464E0,-2.148750305E0,4.679802060E-1,1.054175854E0,2.438733294E0
4.667981527E0,-2.094487190E0,4.618585706E-1,9.332842827E-1,2.339061667E0
4.672830589E0,-2.179623604E0,4.479008317E-1,8.149578571E-1,2.369711062E0
4.677679652E0,-2.282012939E0,4.185244143E-1,6.636731625E-1,2.413132364E0
4.682528662E0,-2.401533127E0,3.591551185E-1,4.463691711E-1,2.468926729E0
4.687377724E0,-2.442423820E0,2.243929654E-1,2.424869537E-1,2.464667573E0
4.692226787E0,-2.452358246E0,5.515223742E-2,6.948328018E-2,2.453962237E0
4.697075849E0,-2.435907364E0,-1.649973691E-1,-4.558444023E-2,2.441914568E0
4.701924912E0,-2.459800720E0,-3.736377358E-1,-9.011316299E-2,2.489647590E0
4.706773922E0,-2.504714012E0,-5.849991441E-1,-1.019244194E-1,2.574141579E0
4.711622985E0,-2.470216751E0,-7.724092007E-1,-1.192114353E-1,2.590906818E0
4.716472047E0,-2.471138954E0,-9.857400060E-1,-1.038103104E-1,2.662515290E0
4.721321110E0,-2.521706581E0,-1.224761248E0,-4.599738121E-2,2.803776017E0
4.726170172E0,-2.583598137E0,-1.453340650E0,8.531045914E-2,2.965544849E0
4.731019183E0,-2.635293007E0,-1.640245199E0,2.111420631E-1,3.111230386E0
4.735868245E0,-2.595636368E0,-1.797016144E0,3.503015041E-1,3.176366843E0
4.740717308E0,-2.488722801E0,-1.896812677E0,4.594330788E-1,3.162707427E0
4.745566370E0,-2.338602066E0,-1.948849320E0,5.645983219E-1,3.096101510E0
4.750415433E0,-2.190853119E0,-1.955046415E0,6.868782043E-1,3.015600362E0
4.755264443E0,-2.016866684E0,-1.955889940E0,8.020915985E-1,2.921747356E0
4.760113506E0,-1.816737175E0,-1.872317433E0,9.172098637E-1,2.765389750E0
4.764962568E0,-1.588162422E0,-1.711776018E0,9.699485302E-1,2.528485153E0
4.769811631E0,-1.359924316E0,-1.469870925E0,1.074915648E0,2.272742469E0
4.774660693E0,-1.127299309E0,-1.214136481E0,1.155444384E0,2.019896743E0
4.779509704E0,-9.572992325E-1,-9.307965040E-1,1.225659370E0,1.812469267E0
4.784358766E0,-7.758121490E-1,-6.682962179E-1,1.256755590E0,1.621091897E0
4.789207829E0,-5.208768845E-1,-3.792944551E-1,1.269749403E0,1.423882214E0
4.794056891E0,-2.930068970E-1,-1.384256482E-1,1.288416147E0,1.328544644E0
4.798905954E0,-9.450721741E-2,8.246614784E-2,1.274702787E0,1.280858882E0
4.803754964E0,1.320705414E-1,2.516657710E-1,1.221670389E0,1.254295351E0
4.808604027E0,3.222513199E-1,3.950981200E-1,1.158344746E0,1.265587210E0
4.813453089E0,4.761857986E-1,4.382725358E-1,1.046858549E0,1.230751215E0
4.818302152E0,6.537733078E-1,4.576171041E-1,9.473736286E-1,1.238688720E0
4.823151214E0,8.024787903E-1,4.148363769E-1,8.648977280E-1,1.250643638E0
4.828000224E0,9.653930664E-1,3.602809310E-1,7.971222401E-1,1.302762445E0
4.832849287E0,1.089882851E0,2.559005618E-1,7.438788414E-1,1.344130000E0
4.837698349E0,1.178424835E0,1.188136935E-1,6.981146336E-1,1.374833018E0
4.842547412E0,1.233488083E0,-2.670035884E-2,6.479806900E-1,1.393587003E0
4.847396474E0,1.190587044E0,-1.564176679E-1,6.221573353E-1,1.352421438E0
4.852245537E0,1.133460045E0,-2.533442974E-1,6.085510254E-1,1.311201494E0
4.857094547E0,1.047691345E0,-3.173302114E-1,5.590107441E-1,1.229165827E0
4.861943610E0,9.666652679E-1,-3.627592921E-1,5.066413879E-1,1.150096318E0
4.866792672E0,8.926534653E-1,-3.490851521E-1,4.271245003E-1,1.049345506E0
4.871641735E0,7.896728516E-1,-3.074401617E-1,3.558869362E-1,9.191072717E-1
4.876490797E0,7.412986755E-1,-2.259608507E-1,2.662346363E-1,8.194284069E-1
4.881339808E0,7.521495819E-1,-1.237360984E-1,1.363427639E-1,7.743571301E-1
4.886188870E0,7.742471695E-1,-5.316404998E-2,-5.564451218E-2,7.780625986E-1
4.891037933E0,8.027286530E-1,2.899985015E-2,-2.573277950E-1,8.434642113E-1
4.895886995E0,8.375587463E-1,1.108637303E-1,-4.568042755E-1,9.604507100E-1
4.900736058E0,8.956174850E-1,1.877055466E-1,-6.295855045E-1,1.110739375E0
4.905585120E0,9.483537674E-1,2.547922730E-1,-7.583833933E-1,1.240741448E0
4.910434131E0,9.816675186E-1,3.358628154E-1,-8.614978790E-1,1.348574634E0
4.915283193E0,1.026872635E0,4.235806465E-1,-9.883325100E-1,1.486838634E0
4.920132256E0,1.091342926E0,4.676841497E-1,-1.114173174E0,1.628232080E0
4.924981318E0,1.230101585E0,4.873045683E-1,-1.155100584E0,1.756380657E0
4.929830381E0,1.419175148E0,4.586823285E-1,-1.154185295E0,1.885892700E0
4.934679391E0,1.584518433E0,3.606539965E-1,-1.154159904E0,1.993202210E0
4.939528454E0,1.749983311E0,2.961551845E-1,-1.117065668E0,2.097137379E0
4.944377516E0,1.896317005E0,2.339439392E-1,-1.026699424E0,2.169068846E0
4.949226579E0,2.025847912E0,2.143034190E-1,-8.834058046E-1,2.220448498E0
4.954075641E0,2.124164581E0,2.106077373E-1,-7.329634428E-1,2.256915195E0
4.958924704E0,2.212696075E0,1.414834112E-1,-5.948905945E-1,2.295634182E0
4.963773714E0,2.255537033E0,7.127381861E-2,-5.124061108E-1,2.314106153E0
4.968622777E0,2.300546169E0,-1.194047928E-2,-4.208781719E-1,2.338759006E0
4.973471839E0,2.328646183E0,-8.160656691E-2,-3.129980564E-1,2.351004139E0
4.978320902E0,2.366167068E0,-1.303376555E-1,-2.006635666E-1,2.378234717E0
4.983169964E0,2.401110649E0,-1.578188241E-1,-1.198811531E-1,2.409275954E0
4.988019027E0,2.409485340E0,-2.282814234E-1,-5.901527405E-2,2.420994592E0
4.992868089E0,2.450953960E0,-3.032025993E-1,-8.297657967E-2,2.471030604E0
4.997717099E0,2.470496178E0,-4.037457108E-1,-1.439385414E-1,2.507405086E0
5.002566162E0,2.453920841E0,-4.580619931E-1,-1.888802052E-1,2.503442433E0
5.007415224E0,2.375162601E0,-5.070109367E-1,-2.482671738E-1,2.441330388E0
5.012264287E0,2.258421898E0,-5.196780562E-1,-2.974224091E-1,2.336449195E0
5.017113349E0,2.154110432E0,-5.009778738E-1,-2.975308895E-1,2.231523070E0
5.021962412E0,2.091022968E0,-4.819995463E-1,-3.199341297E-1,2.169575641E0
5.026811422E0,2.028588772E0,-4.412289262E-1,-3.284201622E-1,2.101836143E0
5.031660485E0,1.933378220E0,-4.002334476E-1,-3.133661747E-1,1.999083918E0
5.036509547E0,1.800582409E0,-3.854150474E-1,-2.750251293E-1,1.861794992E0
5.041358610E0,1.618129730E0,-3.562073708E-1,-2.044239044E-1,1.669436027E0
5.046207672E0,1.457533360E0,-2.888762951E-1,-1.693058014E-1,1.495499068E0
5.051056735E0,1.371097565E0,-2.192331105E-1,-1.752226353E-1,1.399526584E0
5.055905745E0,1.320264816E0,-1.757782698E-1,-2.348406315E-1,1.352459725E0
5.060754808E0,1.283422470E0,-1.201957464E-1,-3.698198795E-1,1.341039521E0
5.065603870E0,1.251033783E0,-1.287252605E-1,-5.249876976E-1,1.362816129E0
5.070452933E0,1.230383873E0,-1.439126730E-1,-7.071037292E-1,1.426376884E0
5.075301995E0,1.192897797E0,-1.894694567E-1,-8.871012926E-1,1.498616873E0
5.080151058E0,1.217620850E0,-1.840231717E-1,-1.011911869E0,1.593872859E0
5.085000120E0,1.192269325E0,-1.944498420E-1,-1.136210203E0,1.658399985E0
5.089849131E0,1.181487083E0,-1.464854181E-1,-1.247910500E0,1.724717461E0
5.094698193E0,1.187708855E0,-1.403720379E-1,-1.332536221E0,1.790533276E0
5.099547256E0,1.132099152E0,-1.354638040E-1,-1.344551921E0,1.762900678E0
5.104396318E0,1.069714546E0,-1.200219393E-1,-1.272029519E0,1.666359377E0
5.109245381E0,9.885625839E-1,-9.185078740E-2,-1.143892765E0,1.514656135E0
5.114094443E0,9.482936859E-1,-6.778532267E-2,-1.056168079E0,1.421037219E0
5.118943454E0,9.224224091E-1,-4.324191809E-2,-9.686213732E-1,1.338267660E0
5.123792516E0,8.678388596E-1,-3.994780779E-2,-8.694949150E-1,1.229130392E0
5.128641579E0,8.012437820E-1,-5.339846015E-2,-7.780852318E-1,1.118150089E0
5.133490641E0,7.584772110E-1,-5.983293056E-2,-7.183160782E-1,1.046348722E0
5.138339704E0,7.203722000E-1,-4.498976469E-2,-6.878006458E-1,9.970104883E-1
5.143188766E0,6.558218002E-1,-2.341437340E-2,-6.674532890E-1,9.360258328E-1
5.148037829E0,5.886840820E-1,-1.903271675E-2,-7.100596428E-1,9.225485836E-1
5.152886839E0,5.857963562E-1,-7.818460464E-3,-7.584700584E-1,9.583816196E-1
5.157735902E0,5.729084015E-1,-2.324122190E-2,-8.487830162E-1,1.024303080E0
5.162584964E0,5.978403091E-1,-6.988677382E-2,-9.928808212E-1,1.161081186E0
5.167434027E0,6.128435135E-1,-1.164446175E-1,-1.147402644E0,1.306012767E0
5.172283089E0,6.348028183E-1,-1.652542353E-1,-1.333393812E0,1.486008963E0
5.177132152E0,6.160993576E-1,-2.184416354E-1,-1.476180077E0,1.614435748E0
5.181981214E0,5.904178619E-1,-2.663543522E-1,-1.608749270E0,1.734246842E0
5.186830224E0,5.364379883E-1,-3.471004069E-1,-1.749703407E0,1.862714799E0
5.191679287E0,4.711017609E-1,-4.151692390E-1,-1.817245603E0,1.922676246E0
5.196528349E0,3.683156967E-1,-5.374016762E-1,-1.853947282E0,1.965089702E0
5.201377412E0,1.828670502E-1,-6.541408896E-1,-1.797240257E0,1.921305078E0
5.206226474E0,-4.450035095E-2,-7.846238613E-1,-1.647175789E0,1.825048757E0
5.211075537E0,-2.493085861E-1,-8.427836895E-1,-1.492611527E0,1.732145574E0
5.215924599E0,-3.672342300E-1,-9.193711877E-1,-1.307829499E0,1.640281183E0
5.220773662E0,-4.798221588E-1,-1.002259016E0,-1.129299998E0,1.584320335E0
5.225622672E0,-5.848226547E-1,-1.088762760E0,-9.240260124E-1,1.543128626E0
5.230471735E0,-7.373924255E-1,-1.159699440E0,-6.997876167E-1,1.542191003E0
5.235320797E0,-8.587703705E-1,-1.205523491E0,-5.049052238E-1,1.563874266E0
5.240169860E0,-8.582935333E-1,-1.231000423E0,-3.325319290E-1,1.537077524E0
5.245018922E0,-8.509521484E-1,-1.200310588E0,-1.878201962E-1,1.483287394E0
5.249867985E0,-8.153495789E-1,-1.158913612E0,-8.061122894E-2,1.419286394E0
5.254717047E0,-7.778673172E-1,-1.080821991E0,-1.428604126E-3,1.331636505E0
5.259566110E0,-7.337379456E-1,-1.016365528E0,4.498195648E-2,1.254349886E0
5.264415120E0,-6.542329788E-1,-9.561231136E-1,6.604552269E-2,1.160411225E0
5.269264183E0,-6.324443817E-1,-8.907600641E-1,5.516934395E-2,1.093838674E0
5.274113245E0,-7.207469940E-1,-8.111672997E-1,6.067872047E-2,1.086807492E0
5.278962308E0,-9.069328308E-1,-7.751991749E-1,6.628632545E-2,1.194928783E0
5.283811370E0,-1.145411491E0,-7.282175422E-1,1.486945152E-2,1.357383282E0
5.288660433E0,-1.385809898E0,-7.516422272E-1,-6.680989265E-2,1.577941277E0
5.293509495E0,-1.601684570E0,-8.523223996E-1,-1.137614250E-1,1.817907753E0
5.298358506E0,-1.814451218E0,-1.006011963E0,-1.591346264E-1,2.080773202E0
5.303207568E0,-2.012121201E0,-1.169300556E0,-1.693887711E-1,2.333364111E0
5.308056631E0,-2.182763100E0,-1.315478325E0,-1.422286034E-1,2.552482507E0
5.312905693E0,-2.333609581E0,-1.441802025E0,-7.782936096E-2,2.744190985E0
5.317754756E0,-2.491009712E0,-1.598105431E0,3.077936172E-2,2.959732711E0
5.322603818E0,-2.633377075E0,-1.716965914E0,1.168088913E-1,3.145837104E0
5.327452881E0,-2.791702271E0,-1.812471867E0,2.236006260E-1,3.335963590E0
5.332301943E0,-2.982522964E0,-1.884399891E0,3.995037079E-1,3.550494247E0
5.337151006E0,-3.198647499E0,-1.880226374E0,5.583920479E-1,3.752119230E0
5.342000016E0,-3.442547798E0,-1.797491312E0,7.214851379E-1,3.950019135E0
5.346849079E0,-3.559073448E0,-1.660172701E0,8.618366718E-1,4.020688953E0
5.351698141E0,-3.601202965E0,-1.465743065E0,9.596147537E-1,4.004737944E0
5.356547204E0,-3.576440811E0,-1.281037569E0,1.047581196E0,3.940737557E0
5.361396266E0,-3.449338913E0,-1.020146847E0,1.155837774E0,3.778174094E0
5.366245329E0,-3.268068314E0,-7.170891762E-1,1.252534628E0,3.572580354E0
5.371094391E0,-3.066304207E0,-3.966959715E-1,1.349205494E0,3.373417354E0
5.375943454E0,-2.870471001E0,-6.975659728E-2,1.450281858E0,3.216797665E0
5.380792516E0,-2.668631554E0,2.745691240E-1,1.483986378E0,3.065811172E0
5.385641527E0,-2.453639984E0,5.253147483E-1,1.510048628E0,2.928575014E0
5.390490589E0,-2.206310272E0,7.320945859E-1,1.476108551E0,2.753663733E0
5.395339652E0,-1.993504524E0,8.418412805E-1,1.394428730E0,2.574332634E0
5.400188714E0,-1.769637108E0,8.853712678E-1,1.265451670E0,2.348800908E0
5.405037777E0,-1.551271439E0,8.267076612E-1,1.132807493E0,2.091205741E0
5.409886839E0,-1.374037743E0,6.658406258E-1,1.044964790E0,1.850209413E0
5.414735902E0,-1.168398857E0,4.726319015E-1,9.211974144E-1,1.561134677E0
5.419584964E0,-8.865098953E-1,2.191876471E-1,8.191826344E-1,1.226785722E0
5.424434027E0,-6.264114380E-1,-9.325219691E-2,7.031822205E-1,9.463363551E-1
5.429283089E0,-3.880567551E-1,-4.060482383E-1,5.876345634E-1,8.128822775E-1
5.434132099E0,-2.909011841E-1,-7.205742598E-1,5.108044147E-1,9.299311334E-1
5.438981162E0,-2.511882782E-1,-9.929950833E-1,4.509391785E-1,1.119142944E0
5.443830224E0,-1.949024200E-1,-1.229930401E0,4.218823910E-1,1.314800554E0
5.448679287E0,-1.579837799E-1,-1.442807436E0,4.018664360E-1,1.506037451E0
5.453528349E0,-7.114124298E-2,-1.588250756E0,3.453648090E-1,1.626922983E0
5.458377412E0,1.064968109E-2,-1.666235805E0,3.171451092E-1,1.696182830E0
5.463226474E0,7.551956177E-2,-1.688778043E0,2.816054821E-1,1.713760815E0
5.468075537E0,7.338905334E-2,-1.629939318E0,2.725148201E-1,1.654192389E0
5.472924599E0,4.984951019E-2,-1.569205523E0,2.423999310E-1,1.588599595E0
5.477773610E0,5.999565125E-2,-1.468822122E0,2.250947952E-1,1.487180409E0
5.482622672E0,7.764816284E-2,-1.348307967E0,2.091226578E-1,1.366636710E0
5.487471735E0,1.148862839E-1,-1.165031672E0,2.307860851E-1,1.193214093E0
5.492320797E0,1.239709854E-1,-1.003037453E0,2.831277847E-1,1.049578143E0
5.497169860E0,1.574831009E-1,-8.078924417E-1,3.874838352E-1,9.097443856E-1
5.502018922E0,2.009010315E-1,-6.015236378E-1,5.145878792E-1,8.166961471E-1
5.506867985E0,2.946834564E-1,-3.795056939E-1,5.802192688E-1,7.533374483E-1
5.511717047E0,3.908338547E-1,-1.779665351E-1,6.126458645E-1,7.481698636E-1
5.516566110E0,5.059003830E-1,5.063426495E-2,5.969471931E-1,7.841205122E-1
5.521415172E0,6.278047562E-1,2.439225763E-1,5.590815544E-1,8.753337761E-1
5.526264235E0,7.325973511E-1,3.778656125E-1,4.964966774E-1,9.622838721E-1
5.531113245E0,8.394489288E-1,4.978633523E-1,4.069020748E-1,1.057408020E0
5.535962308E0,9.722213745E-1,5.750983953E-1,2.519450188E-1,1.157336968E0
5.540811370E0,1.099837303E0,6.528424621E-1,5.807805061E-2,1.280319661E0
5.545660433E0,1.243840218E0,6.907513738E-1,-1.817038059E-1,1.434326400E0
5.550509495E0,1.373234749E0,6.914034486E-1,-4.598667622E-1,1.604770963E0
5.555358558E0,1.476143837E0,6.911021471E-1,-7.140014172E-1,1.779443966E0
5.560207620E0,1.557449341E0,7.020536065E-1,-9.104340076E-1,1.935824837E0
5.565056683E0,1.600521088E0,7.052166462E-1,-1.099178910E0,2.065718409E0
5.569905745E0,1.610176086E0,6.935363412E-1,-1.249192238E0,2.152705491E0
5.574754808E0,1.595938683E0,6.956565976E-1,-1.344060898E0,2.199422214E0
5.579603870E0,1.624667168E0,7.068488598E-1,-1.436700106E0,2.281071220E0
5.584452933E0,1.681915760E0,6.603207588E-1,-1.520103574E0,2.361266398E0
5.589301995E0,1.765263081E0,6.399251223E-1,-1.572743058E0,2.449322076E0
5.594151006E0,1.886689186E0,6.266606450E-1,-1.603994966E0,2.554427431E0
5.599000068E0,1.941002369E0,6.109143496E-1,-1.592352033E0,2.583852073E0
5.603849131E0,1.964117050E0,5.758879185E-1,-1.592891812E0,2.593589599E0
5.608698193E0,2.003854275E0,5.263708234E-1,-1.555473685E0,2.590752127E0
5.613547256E0,2.074562073E0,5.005675554E-1,-1.465700626E0,2.588948435E0
5.618396318E0,2.128481865E0,4.315129519E-1,-1.395090938E0,2.581262714E0
5.623245381E0,2.122648239E0,3.548122048E-1,-1.267074466E0,2.497399638E0
5.628094443E0,2.076243877E0,2.917769253E-1,-1.134362340E0,2.383841507E0
5.632943506E0,2.096817493E0,2.159701735E-1,-1.054464340E0,2.356943309E0
5.637792568E0,2.126927853E0,1.441978365E-1,-9.484555721E-1,2.333277326E0
5.642641631E0,2.190432549E0,5.270290375E-2,-8.116526604E-1,2.336568507E0
5.647490693E0,2.280147076E0,-3.916963935E-2,-7.061264515E-1,2.387303817E0
5.652339704E0,2.333876133E0,-1.695043445E-1,-5.936615467E-1,2.414154833E0
5.657188766E0,2.368452549E0,-2.758140564E-1,-5.457470417E-1,2.446115431E0
5.662037829E0,2.398292542E0,-3.815979660E-1,-5.214581490E-1,2.483816161E0
5.666886891E0,2.382865906E0,-4.697715938E-1,-4.941489697E-1,2.478491170E0
5.671735954E0,2.307892323E0,-4.660084844E-1,-4.542448521E-1,2.397888501E0
5.676585016E0,2.197245598E0,-4.706734717E-1,-4.498679638E-1,2.291681243E0
5.681434079E0,2.084341049E0,-4.478777349E-1,-4.477984905E-1,2.178438790E0
5.686283141E0,1.966672421E0,-4.049264789E-1,-4.794921875E-1,2.064383351E0
5.691132204E0,1.813125610E0,-3.301169574E-1,-5.212063789E-1,1.915217422E0
5.695981266E0,1.614265919E0,-2.310945392E-1,-5.655364990E-1,1.726004251E0
5.700830329E0,1.389370441E0,-8.212143183E-2,-6.384868622E-1,1.531260796E0
5.705679391E0,1.231823921E0,-4.346534610E-2,-7.634451389E-1,1.449871680E0
5.710528454E0,1.170289993E0,-1.213163137E-2,-8.636388779E-1,1.454509524E0
5.715377516E0,1.056704521E0,2.151903510E-2,-9.240338802E-1,1.403896765E0
5.720226527E0,9.009017944E-1,6.697845459E-2,-1.003758192E0,1.350422402E0
5.725075589E0,7.365159988E-1,1.075328439E-1,-1.033064127E0,1.273279474E0
5.729924652E0,6.018314362E-1,1.887165457E-1,-1.023821592E0,1.202508073E0
5.734773714E0,4.585447311E-1,2.914853394E-1,-9.163875580E-1,1.065360563E0
5.739622777E0,2.850036621E-1,4.015064836E-1,-7.591531277E-1,9.048469567E-1
5.744471839E0,1.097650528E-1,4.900425076E-1,-5.909156799E-1,7.754813775E-1
5.749320902E0,-8.418941498E-2,5.737123489E-1,-4.556467533E-1,7.374602909E-1
5.754169964E0,-3.423814774E-1,6.260679960E-1,-3.203172684E-1,7.821696517E-1
5.759019027E0,-6.528444290E-1,6.946452856E-1,-2.042911053E-1,9.749219338E-1
5.763868089E0,-8.721752167E-1,7.265660763E-1,-1.316325665E-1,1.142766382E0
5.768717152E0,-1.031580925E0,7.767277956E-1,-3.308486938E-2,1.291727480E0
5.773566214E0,-1.183667183E0,8.163660765E-1,-1.129388809E-2,1.437932239E0
5.778415277E0,-1.321241379E0,8.263263702E-1,-1.588106155E-2,1.558443537E0
5.783264339E0,-1.427544594E0,8.066905737E-1,-4.663181305E-2,1.640368183E0
5.788113402E0,-1.512173653E0,8.053740263E-1,-3.897500038E-2,1.713713958E0
5.792962464E0,-1.555982590E0,7.461214066E-1,-2.618670464E-2,1.725822910E0
5.797811474E0,-1.561377525E0,7.033423185E-1,-1.768708229E-2,1.712572050E0
5.802660537E0,-1.600033760E0,6.127013564E-1,5.133461952E-2,1.714102164E0
5.807509599E0,-1.643267632E0,5.556393862E-1,1.639587879E-1,1.742396660E0
5.812358662E0,-1.760497093E0,5.321258307E-1,3.006150723E-1,1.863565759E0
5.817207724E0,-1.822729111E0,4.896513224E-1,4.583446980E-1,1.942210002E0
5.822056787E0,-1.825406075E0,4.402566254E-1,5.839755535E-1,1.966458919E0
5.826905849E0,-1.807003021E0,4.175277948E-1,6.912887096E-1,1.979259826E0
5.831754912E0,-1.743741989E0,3.880616724E-1,7.894911766E-1,1.953080721E0
5.836603974E0,-1.638202667E0,3.544142544E-1,8.661324978E-1,1.886664503E0
5.841453037E0,-1.535836220E0,3.381456733E-1,9.331805706E-1,1.828650149E0
5.846302099E0,-1.448590279E0,3.247299194E-1,9.810485840E-1,1.779415533E0
5.851151162E0,-1.378866196E0,3.068553805E-1,1.026342869E0,1.746084733E0
5.856000224E0,-1.341039658E0,3.225546479E-1,1.040155411E0,1.727527755E0
5.860849287E0,-1.335057259E0,2.687541842E-1,1.003428936E0,1.691589881E0
5.865698349E0,-1.360730171E0,2.218659222E-1,9.048354626E-1,1.649102271E0
5.870547412E0,-1.472726822E0,1.481740177E-1,7.716922760E-1,1.669247974E0
5.875396474E0,-1.653922081E0,4.996326566E-2,6.218376160E-1,1.767664165E0
5.880245537E0,-1.877609253E0,-9.437386692E-2,4.589142799E-1,1.935180935E0
5.885094599E0,-2.119544983E0,-2.656190395E-1,3.365807533E-1,2.162477980E0
5.889943662E0,-2.303026199E0,-4.467000961E-1,2.436201572E-1,2.358563425E0
5.894792724E0,-2.461500168E0,-6.183468699E-1,2.782881260E-1,2.553190202E0
5.899641735E0,-2.685722351E0,-7.445586324E-1,3.451969624E-1,2.808314984E0
5.904490849E0,-2.956501961E0,-8.134620190E-1,5.040538311E-1,3.107522255E0
5.909339860E0,-3.254728317E0,-9.086548090E-1,7.067527771E-1,3.452304950E0
5.914188922E0,-3.549388885E0,-9.848228097E-1,9.147253036E-1,3.795360300E0
5.919037985E0,-3.850210190E0,-1.010990500E0,1.134577990E0,4.139261711E0
5.923887047E0,-4.140560150E0,-1.015837312E0,1.344455957E0,4.470316054E0
5.928736110E0,-4.372881889E0,-1.035297513E0,1.572238207E0,4.760868612E0
5.933585172E0,-4.525886536E0,-9.951983690E-1,1.819760561E0,4.978513556E0
5.938434235E0,-4.551991463E0,-1.024209499E0,2.077019930E0,5.107214815E0
5.943283297E0,-4.410895348E0,-1.028277755E0,2.278835535E0,5.070152296E0
5.948132360E0,-4.153248787E0,-1.037725329E0,2.464855433E0,4.939824050E0
5.952981422E0,-3.767471313E0,-1.037715316E0,2.569638491E0,4.676936513E0
5.957830485E0,-3.253869057E0,-1.044796228E0,2.671462774E0,4.337738622E0
5.962679547E0,-2.658072472E0,-9.967488050E-1,2.770015001E0,3.966338431E0
5.967528610E0,-2.082943916E0,-8.960313797E-1,2.901082754E0,3.682092983E0
5.972377672E0,-1.437709808E0,-7.762147784E-1,3.047604322E0,3.457948956E0
5.977226735E0,-7.751102448E-1,-6.279515028E-1,3.161411762E0,3.315063093E0
5.982075797E0,-2.266798019E-1,-4.468823969E-1,3.223131418E0,3.261849743E0
5.986924860E0,2.028799057E-1,-2.647551894E-1,3.203879833E0,3.221195671E0
5.991773922E0,5.423231125E-1,-8.955947310E-2,3.144112587E0,3.191798743E0
5.996622985E0,7.965946198E-1,7.548832893E-2,3.046511889E0,3.149840657E0
6.001472047E0,9.873723984E-1,1.843131483E-1,2.827780247E0,3.000869326E0
6.006321110E0,1.095706940E0,2.315571010E-1,2.521947384E0,2.759422221E0
6.011170172E0,1.155350685E0,2.050078362E-1,2.043914080E0,2.356787683E0
6.016019235E0,1.181017876E0,9.763270617E-2,1.450178385E0,1.872792758E0
6.020868297E0,1.227945328E0,7.985740900E-3,8.111393452E-1,1.471686290E0
6.025717360E0,1.188791275E0,-1.091782302E-1,2.472336292E-1,1.219126347E0
6.030566422E0,8.967046738E-1,-2.301847637E-1,-2.499659061E-1,9.589302642E-1
6.035415485E0,6.079893112E-1,-2.740215659E-1,-6.724016666E-1,9.470284169E-1
6.040264495E0,4.325656891E-1,-2.312133908E-1,-1.094354391E0,1.199243195E0
6.045113610E0,3.175535202E-1,-1.423845142E-1,-1.516461015E0,1.555881614E0
6.049962620E0,2.292528152E-1,-1.005232334E-2,-1.915481806E0,1.929178180E0
6.054811683E0,1.865310669E-1,8.937714249E-2,-2.294635296E0,2.303938639E0
6.059660745E0,2.082157135E-1,1.488049030E-1,-2.626122713E0,2.638563470E0
6.064509808E0,2.151460648E-1,1.683035791E-1,-2.925084352E0,2.937810816E0
6.069358870E0,3.027801514E-1,1.647059321E-1,-3.161008358E0,3.179744912E0
6.074207933E0,4.447689056E-1,1.382794529E-1,-3.388721943E0,3.420581382E0
6.079056995E0,6.173820496E-1,8.935300261E-2,-3.624075890E0,3.677372786E0
6.083906058E0,8.328666687E-1,-1.021692157E-2,-3.858644485E0,3.947519289E0
6.088755120E0,9.888782501E-1,-1.382516474E-1,-4.054925442E0,4.176052448E0
6.093604183E0,1.172042847E0,-2.631974518E-1,-4.161025524E0,4.330945710E0
6.098453245E0,1.323009491E0,-3.870218098E-1,-4.163671494E0,4.385920690E0
6.103302308E0,1.439714432E0,-5.070921183E-1,-4.014269829E0,4.294680701E0
6.108151370E0,1.572423935E0,-5.562531352E-1,-3.758305073E0,4.111786911E0
6.113000433E0,1.706537247E0,-5.728147626E-1,-3.348949432E0,3.802084748E0
6.117849495E0,1.762691021E0,-5.497669578E-1,-2.855010748E0,3.400060252E0
6.122698558E0,1.790543556E0,-5.040192008E-1,-2.317004681E0,2.971294713E0
6.127547620E0,1.877982140E0,-4.284974337E-1,-1.803929329E0,2.639050585E0
6.132396683E0,1.912131786E0,-3.568571806E-1,-1.295989394E0,2.337345401E0
6.137245745E0,1.911872387E0,-2.870349884E-1,-8.014700413E-1,2.092844795E0
6.142094808E0,1.929615974E0,-2.289131135E-1,-3.976120949E-1,1.983409791E0
6.146943870E0,1.946101665E0,-1.827895343E-1,-1.014766693E-1,1.957299471E0
6.151792933E0,2.040248871E0,-1.322428137E-1,5.142712593E-2,2.045176854E0
6.156641995E0,2.164305687E0,-1.394800544E-1,8.332872391E-2,2.170395694E0
6.161491058E0,2.335188866E0,-1.374805868E-1,5.497574806E-2,2.339878262E0
6.166340120E0,2.498135567E0,-1.787919104E-1,-3.498363495E-2,2.504769792E0
6.171189183E0,2.612821579E0,-2.321706861E-1,-1.710600853E-1,2.628688149E0
6.176038245E0,2.689096451E0,-3.118420839E-1,-3.189215660E-1,2.725838618E0
6.180887308E0,2.770228863E0,-3.578259051E-1,-4.659008980E-1,2.831831735E0
6.185736370E0,2.825272083E0,-4.153773487E-1,-6.426472664E-1,2.927062725E0
6.190585433E0,2.832871914E0,-4.316637218E-1,-7.937667370E-1,2.973476498E0
6.195434495E0,2.786024094E0,-4.999177754E-1,-8.854988813E-1,2.965797751E0
6.200283558E0,2.703998089E0,-4.840438962E-1,-9.032977819E-1,2.891686539E0
6.205132620E0,2.632299423E0,-4.941400886E-1,-8.757658005E-1,2.817825477E0
6.209981683E0,2.544599056E0,-4.466053843E-1,-8.197983503E-1,2.710444624E0
6.214830745E0,2.471930504E0,-3.989256024E-1,-7.475736141E-1,2.613129993E0
6.219679808E0,2.390258789E0,-3.512606025E-1,-7.049074173E-1,2.516667550E0
6.224528870E0,2.289930820E0,-3.060705066E-1,-7.016839981E-1,2.414502589E0
6.229377933E0,2.175623894E0,-2.778116465E-1,-7.119836807E-1,2.305957372E0
6.234226995E0,2.092688560E0,-2.665388584E-1,-7.264811993E-1,2.231179802E0
6.239076058E0,1.976534367E0,-2.244011760E-1,-7.572076321E-1,2.128475367E0
6.243925120E0,1.851148129E0,-2.111706734E-1,-8.159261942E-1,2.033980826E0
6.248774183E0,1.685527325E0,-1.789252162E-1,-8.570034504E-1,1.899334491E0
6.253623245E0,1.611210823E0,-1.681941748E-1,-9.089785814E-1,1.857560674E0
6.258472308E0,1.499054432E0,-1.692862660E-1,-9.526423216E-1,1.784194334E0
6.263321370E0,1.373015404E0,-1.605620980E-1,-1.007073402E0,1.710306500E0
6.268170433E0,1.252233505E0,-1.919499040E-1,-1.010130405E0,1.620276814E0
6.273019495E0,1.143868446E0,-2.132425457E-1,-9.953095913E-1,1.531191885E0
6.277868558E0,1.012051582E0,-1.932752132E-1,-9.172568321E-1,1.379479543E0
6.282717620E0,8.208684921E-1,-1.250838935E-1,-8.026453257E-1,1.154863880E0
6.287566683E0,6.419143677E-1,-5.187290907E-2,-7.071001530E-1,9.564180469E-1
6.292415745E0,5.490169525E-1,5.509139597E-2,-6.290737391E-1,8.367726365E-1
6.297264808E0,4.893503189E-1,1.480302960E-1,-5.953650475E-1,7.847523449E-1
6.302113870E0,4.652271271E-1,2.078664899E-1,-5.415337086E-1,7.435748213E-1
6.306962933E0,4.240417480E-1,2.895397246E-1,-4.843084812E-1,7.058323889E-1
6.311811995E0,3.706693649E-1,3.594445586E-1,-4.568738937E-1,6.894417478E-1
6.316661058E0,3.123550415E-1,4.293487370E-1,-4.326834679E-1,6.849240785E-1
6.321510120E0,2.826671600E-1,5.087224841E-1,-4.209046364E-1,7.182339467E-1
6.326359183E0,2.362270355E-1,5.807266235E-1,-4.165196419E-1,7.526853497E-1
6.331208245E0,2.495307922E-1,6.596133709E-1,-4.099340439E-1,8.157213591E-1
6.336057308E0,2.603492737E-1,7.239063978E-1,-3.988451958E-1,8.665446943E-1
6.340906370E0,3.140516281E-1,7.761871815E-1,-3.929862976E-1,9.249503748E-1
6.345755433E0,3.795480728E-1,7.831636071E-1,-3.683397770E-1,9.450270718E-1
6.350604495E0,4.019441605E-1,7.976256609E-1,-3.341791630E-1,9.536464313E-1
6.355453558E0,4.028701782E-1,8.410526514E-1,-2.615821362E-1,9.685551904E-1
6.360302620E0,3.561124802E-1,8.895267844E-1,-1.814925671E-1,9.751992364E-1
6.365151683E0,3.333740234E-1,9.286358953E-1,-9.169387817E-2,9.909140390E-1
6.370000745E0,3.178281784E-1,9.725785255E-1,1.230812073E-2,1.023266939E0
6.374849808E0,2.830743790E-1,1.033090830E0,9.906792641E-2,1.075742637E0
6.379698870E0,2.028121948E-1,1.083629847E0,1.613018513E-1,1.114183431E0
6.384547933E0,4.363632202E-2,1.123826861E0,2.109932899E-1,1.144294154E0
6.389396995E0,-1.872062683E-1,1.122234225E0,2.361559868E-1,1.161992037E0
6.394246058E0,-3.940572739E-1,1.171770692E0,1.961126328E-1,1.251713967E0
6.399095120E0,-5.721950531E-1,1.190986156E0,1.338782310E-1,1.328073260E0
6.403944183E0,-7.646255493E-1,1.191897154E0,1.619052887E-2,1.416168489E0
6.408793245E0,-8.852834702E-1,1.174781442E0,-1.305394173E-1,1.476779874E0
6.413642308E0,-9.748535156E-1,1.154340386E0,-2.774889469E-1,1.536177470E0
6.418491370E0,-1.045295715E0,1.116529346E0,-4.245798588E-1,1.587308719E0
6.423340433E0,-1.113342285E0,1.049635053E0,-5.526175499E-1,1.626853080E0
6.428189495E0,-1.186135292E0,9.827126861E-1,-6.495755911E-1,1.671702606E0
6.433038558E0,-1.201489449E0,9.040198922E-1,-7.416517735E-1,1.676566794E0
6.437887620E0,-1.255021095E0,8.424488306E-1,-8.119390011E-1,1.715821355E0
6.442736683E0,-1.296422005E0,8.219275475E-1,-8.243455887E-1,1.742360628E0
6.447585745E0,-1.406941414E0,7.658954859E-1,-7.597473860E-1,1.772934327E0
6.452434808E0,-1.498107910E0,7.627221346E-1,-6.661828756E-1,1.808278736E0
6.457283870E0,-1.596338272E0,7.475194931E-1,-5.464448929E-1,1.845449347E0
6.462132933E0,-1.570299149E0,7.418092489E-1,-4.225270748E-1,1.787358248E0
6.466981995E0,-1.542117119E0,7.551430464E-1,-2.780413628E-1,1.739446242E0
6.471831058E0,-1.490378380E0,7.420970201E-1,-1.611790657E-1,1.672696743E0
6.476680120E0,-1.388922691E0,7.482373118E-1,-1.009793282E-1,1.580873854E0
6.481529183E0,-1.314336777E0,7.042301893E-1,-6.408810616E-2,1.492490740E0
6.486378245E0,-1.321535110E0,6.410334110E-1,-1.693677902E-2,1.468899499E0
6.491227308E0,-1.343426704E0,5.106679797E-1,-3.090143204E-2,1.437543736E0
6.496076370E0,-1.408561707E0,3.730034530E-1,-1.945543289E-2,1.457242660E0
6.500925433E0,-1.476149559E0,1.754549146E-1,-3.475761414E-2,1.486946549E0
6.505774495E0,-1.586709976E0,-7.654547691E-3,-3.100109100E-2,1.587031256E0
6.510623610E0,-1.675584793E0,-1.784256697E-1,-2.228665352E-2,1.685205273E0
6.515472620E0,-1.735614777E0,-3.509123325E-1,2.006506920E-2,1.770847460E0
6.520321735E0,-1.730909348E0,-5.151566863E-1,1.499438286E-2,1.806006205E0
6.525170797E0,-1.773786545E0,-6.780346632E-1,2.018356323E-2,1.899067426E0
6.530019860E0,-1.880748749E0,-8.393660784E-1,5.053734779E-2,2.060171181E0
6.534868922E0,-2.039615631E0,-9.631401300E-1,1.017694473E-1,2.257881275E0
6.539717985E0,-2.197668076E0,-1.070881486E0,1.430592537E-1,2.448876901E0
6.544567047E0,-2.386017799E0,-1.105293870E0,2.148993015E-1,2.638358806E0
6.549416110E0,-2.640609741E0,-1.081243515E0,3.096358776E-1,2.870153606E0
6.554265172E0,-2.865633965E0,-1.029793501E0,3.584272861E-1,3.066072862E0
6.559114235E0,-3.075490952E0,-9.414002895E-1,4.186120033E-1,3.243472693E0
6.563963297E0,-3.279863358E0,-8.543729782E-1,4.563527107E-1,3.419899798E0
6.568812360E0,-3.478857994E0,-7.401524186E-1,4.617745876E-1,3.586574175E0
6.573661422E0,-3.567436218E0,-6.179811954E-1,4.751689434E-1,3.651614363E0
6.578510485E0,-3.572094917E0,-4.594777822E-1,5.010921955E-1,3.636217172E0
6.583359547E0,-3.411830902E0,-3.078944683E-1,5.246682167E-1,3.465640755E0
6.588208610E0,-3.084594727E0,-1.827931553E-1,5.765275955E-1,3.143329768E0
6.593057672E0,-2.669420242E0,-4.898434877E-2,6.664164066E-1,2.751783917E0
6.597906735E0,-2.245132446E0,7.135277987E-2,8.427405357E-1,2.399150377E0
6.602755797E0,-1.854533195E0,1.059924662E-1,1.008354664E0,2.113600460E0
6.607604860E0,-1.473533630E0,4.743224382E-2,1.082678795E0,1.829137652E0
6.612453922E0,-1.092461586E0,-6.547063589E-3,1.221633673E0,1.638872787E0
6.617302985E0,-7.519292831E-1,-1.278351098E-1,1.401376009E0,1.595491830E0
6.622152047E0,-4.424247742E-1,-2.518652678E-1,1.568958044E0,1.649486325E0
6.627001110E0,-1.713094711E-1,-4.455458820E-1,1.699666977E0,1.765425133E0
6.631850172E0,2.052402496E-2,-6.485975981E-1,1.820940971E0,1.933113060E0
6.636699235E0,1.257352829E-1,-8.963665962E-1,1.907744169E0,2.111580037E0
6.641548297E0,1.513891220E-1,-1.171395540E0,1.901778221E0,2.238715386E0
6.646397360E0,1.261644363E-1,-1.434605360E0,1.812142134E0,2.314707134E0
6.651246422E0,1.242399216E-1,-1.687473774E0,1.648408890E0,2.362256371E0
6.656095485E0,1.170063019E-1,-1.881440639E0,1.480201006E0,2.396769570E0
6.660944599E0,6.871032715E-2,-2.030485630E0,1.341202497E0,2.434423370E0
6.665793610E0,3.677368164E-2,-2.136601686E0,1.169171572E0,2.435853287E0
6.670642724E0,5.459880829E-2,-2.235321283E0,9.208590984E-1,2.418186045E0
6.675491787E0,1.196622849E-1,-2.252290249E0,6.341958046E-1,2.342932937E0
6.680340849E0,1.721334457E-1,-2.225779772E0,3.473215103E-1,2.259282574E0
6.685189912E0,2.287969589E-1,-2.158412933E0,1.130170822E-1,2.173445951E0
6.690038974E0,2.108678818E-1,-2.055484772E0,-6.115031242E-2,2.067177368E0
6.694888037E0,2.332792282E-1,-1.900971055E0,-2.319192886E-1,1.929221788E0
6.699737099E0,2.673854828E-1,-1.726565242E0,-3.940253258E-1,1.791027216E0
6.704586162E0,3.419818878E-1,-1.554160476E0,-6.328833103E-1,1.712573409E0
6.709435224E0,4.667711258E-1,-1.395923615E0,-9.403442144E-1,1.746632550E0
6.714284287E0,5.773715973E-1,-1.278134584E0,-1.234212041E0,1.868225184E0
6.719133349E0,6.500825882E-1,-1.133787870E0,-1.451618910E0,1.953274114E0
6.723982412E0,6.898117065E-1,-1.022834301E0,-1.589915276E0,2.012426590E0
6.728831474E0,7.133016586E-1,-9.383552074E-1,-1.685111761E0,2.056431715E0
6.733680537E0,8.303604126E-1,-8.469374180E-1,-1.759348035E0,2.121816889E0
6.738529599E0,9.499444962E-1,-8.009763956E-1,-1.794049382E0,2.182331533E0
6.743378662E0,1.064826012E0,-7.548331022E-1,-1.799075723E0,2.222678767E0
6.748227724E0,1.155816078E0,-6.724430919E-1,-1.736561775E0,2.191742986E0
6.753076787E0,1.148836136E0,-5.873505473E-1,-1.589956999E0,2.047625061E0
6.757925849E0,1.113255501E0,-4.972185493E-1,-1.445639849E0,1.891147447E0
6.762774912E0,1.130189896E0,-4.047267437E-1,-1.273234844E0,1.749931400E0
6.767623974E0,1.098986626E0,-2.982010245E-1,-1.095184684E0,1.579912955E0
6.772473089E0,1.076805115E0,-2.090480626E-1,-9.842633009E-1,1.473765447E0
6.777322152E0,1.025205612E0,-1.017865688E-1,-9.244517088E-1,1.384203025E0
6.782171214E0,1.018264771E0,-1.481851935E-2,-9.397795200E-1,1.385737449E0
6.787020277E0,1.089435577E0,-6.875097752E-4,-9.916586876E-1,1.473179318E0
6.791869339E0,1.200551033E0,-2.312570810E-2,-1.091311812E0,1.622596393E0
6.796718402E0,1.342200279E0,-7.705515623E-2,-1.173303127E0,1.784398867E0
6.801567464E0,1.426111221E0,-1.525934488E-1,-1.294214487E0,1.931856391E0
6.806416527E0,1.493133545E0,-1.587217748E-1,-1.329098225E0,2.005278653E0
6.811265589E0,1.497957230E0,-1.386268139E-1,-1.347049475E0,2.019315612E0
6.816114652E0,1.474151611E0,-7.558879256E-2,-1.355107188E0,2.003784452E0
6.820963714E0,1.419339180E0,-8.901953697E-4,-1.329489231E0,1.944753485E0
6.825812777E0,1.359779358E0,7.573345304E-2,-1.289601684E0,1.875582032E0
6.830661839E0,1.302619934E0,1.397007108E-1,-1.237958074E0,1.802463640E0
6.835510902E0,1.262147903E0,1.883971691E-1,-1.181906104E0,1.739371399E0
6.840359964E0,1.159492493E0,2.239696383E-1,-1.092682958E0,1.608894430E0
6.845209027E0,1.159608841E0,2.725015879E-1,-1.018184662E0,1.567051303E0
6.850058089E0,1.195500374E0,2.862203419E-1,-9.820954800E-1,1.573421355E0
6.854907152E0,1.202730179E0,2.818944156E-1,-9.360349178E-1,1.549898613E0
6.859756214E0,1.229231834E0,2.118703723E-1,-8.748435974E-1,1.523565318E0
6.864605277E0,1.189064026E0,1.456612349E-1,-7.622450590E-1,1.419897173E0
6.869454391E0,1.161212921E0,7.371389866E-2,-6.626921892E-1,1.339033280E0
6.874303454E0,1.085906982E0,-8.656382561E-3,-4.925799370E-1,1.192436121E0
6.879152516E0,1.037169456E0,-6.310388446E-2,-3.289532661E-1,1.089914140E0
6.884001579E0,1.012441635E0,-1.564112455E-1,-2.416722775E-1,1.052572103E0
6.888850641E0,9.876585007E-1,-2.571162283E-1,-1.953606606E-1,1.039107240E0
6.893699704E0,9.388790131E-1,-4.151479304E-1,-1.877727509E-1,1.043599641E0
6.898548766E0,9.187717438E-1,-5.656479001E-1,-1.541345119E-1,1.089888302E0
6.903397829E0,9.249639511E-1,-6.700656414E-1,-8.713197708E-2,1.145486035E0
6.908246891E0,9.120311737E-1,-7.473255992E-1,-2.264738083E-2,1.179325789E0
6.913095954E0,8.633346558E-1,-8.142852783E-1,8.520841599E-3,1.186793936E0
6.917945016E0,7.717580795E-1,-8.068095446E-1,9.012675285E-2,1.120122764E0
6.922794079E0,6.898422241E-1,-7.923045754E-1,1.788191795E-1,1.065647753E0
6.927643141E0,6.987609863E-1,-8.260430694E-1,2.074568272E-1,1.101658933E0
6.932492204E0,8.056535721E-1,-7.764928341E-1,2.696354389E-1,1.150965712E0
6.937341266E0,9.531974792E-1,-7.631859779E-1,3.587176800E-1,1.272680889E0
6.942190381E0,1.098441124E0,-7.859657407E-1,4.703209400E-1,1.430215660E0
6.947039391E0,1.160219193E0,-8.469856381E-1,5.688529015E-1,1.545020022E0
6.951888506E0,1.203199387E0,-9.078545570E-1,6.663935184E-1,1.648019715E0
6.956737568E0,1.229771614E0,-9.946207404E-1,7.986552715E-1,1.771851823E0
6.961586631E0,1.275782585E0,-1.063952923E0,9.104964733E-1,1.894365555E0
6.966435693E0,1.252742767E0,-1.108547211E0,1.054332972E0,1.977336434E0
6.971284756E0,1.155876160E0,-1.094990015E0,1.236974239E0,2.016223722E0
6.976133818E0,1.009054184E0,-1.071259379E0,1.376682043E0,2.015202335E0
6.980982881E0,8.314046860E-1,-1.037390471E0,1.427915096E0,1.950988022E0
6.985831943E0,6.182270050E-1,-1.024504662E0,1.376584768E0,1.823951769E0
6.990681006E0,4.197549820E-1,-9.896088839E-1,1.280210018E0,1.671663147E0
6.995530068E0,2.145462036E-1,-9.781072140E-1,1.177388906E0,1.545628815E0
7.000379131E0,8.631896973E-2,-9.373984337E-1,1.049260616E0,1.409650534E0
7.005228193E0,-5.817699432E-2,-9.272444248E-1,8.721425533E-1,1.274283885E0
7.010077256E0,-1.662836075E-1,-9.021701217E-1,6.773955822E-1,1.140362197E0
7.014926318E0,-3.216810226E-1,-8.433046341E-1,5.248804092E-1,1.044098094E0
7.019775381E0,-4.620428085E-1,-8.225668669E-1,4.174840450E-1,1.031694109E0
7.024624495E0,-6.111640930E-1,-8.115699887E-1,4.560878277E-1,1.113635264E0
7.029473558E0,-7.379436493E-1,-7.889647484E-1,6.215460300E-1,1.246332889E0
7.034322620E0,-8.544197083E-1,-7.644305229E-1,7.844924927E-1,1.389178006E0
7.039171683E0,-8.676137924E-1,-7.402173281E-1,9.704034328E-1,1.497450569E0
7.044020745E0,-8.257560730E-1,-7.136952281E-1,1.077660084E0,1.533813948E0
7.048869808E0,-8.200254440E-1,-6.917853355E-1,1.155338764E0,1.576647183E0
7.053718870E0,-8.123283386E-1,-7.433648109E-1,1.166748762E0,1.604297742E0
7.058567933E0,-8.433704376E-1,-7.534018159E-1,1.145029783E0,1.609341852E0
7.063416995E0,-9.035034180E-1,-7.957930565E-1,1.123767138E0,1.646954035E0
7.068266058E0,-9.998292923E-1,-7.678967118E-1,1.126981735E0,1.690979540E0
7.073115120E0,-1.122773170E0,-6.891797185E-1,1.123475552E0,1.731411445E0
7.077964183E0,-1.277177811E0,-5.719643831E-1,1.084232807E0,1.770278847E0
7.082813297E0,-1.439176559E0,-4.691983461E-1,9.445126057E-1,1.784231016E0
7.087662360E0,-1.644574165E0,-3.620448112E-1,8.026237488E-1,1.865450485E0
7.092511422E0,-1.890810013E0,-2.987302542E-1,7.284212112E-1,2.048169849E0
7.097360485E0,-2.103626251E0,-2.652130127E-1,6.052978039E-1,2.204986798E0
7.102209547E0,-2.278153419E0,-2.663347125E-1,4.697296619E-1,2.341273828E0
7.107058610E0,-2.392835617E0,-2.732050419E-1,3.077609539E-1,2.427966246E0
7.111907672E0,-2.469121933E0,-2.927613854E-1,1.247062683E-1,2.489542930E0
7.116756735E0,-2.504581451E0,-2.913968563E-1,-3.127646446E-2,2.521669802E0
7.121605797E0,-2.551774979E0,-3.097163439E-1,-1.384346485E-1,2.574226856E0
7.126454860E0,-2.622498512E0,-3.215787113E-1,-2.511799335E-1,2.654054007E0
7.131303922E0,-2.661623955E0,-3.676508069E-1,-3.952341080E-1,2.715809123E0
7.136152985E0,-2.690564156E0,-4.763132930E-1,-4.911750555E-1,2.776195736E0
7.141002047E0,-2.663886070E0,-6.089056730E-1,-5.341560841E-1,2.784309221E0
7.145851162E0,-2.615169525E0,-7.290471792E-1,-5.532301664E-1,2.770683138E0
7.150700224E0,-2.475298882E0,-8.217509985E-1,-4.942555428E-1,2.654556045E0
7.155549287E0,-2.273264885E0,-8.889046907E-1,-3.582862616E-1,2.467033407E0
7.160398349E0,-2.038110733E0,-8.635592461E-1,-9.646177292E-2,2.215611610E0
7.165247412E0,-1.755800247E0,-8.201331496E-1,2.780082226E-1,1.957738865E0
7.170096474E0,-1.493536949E0,-7.399525046E-1,6.158883572E-1,1.776935788E0
7.174945537E0,-1.296885490E0,-6.140756607E-1,9.165289402E-1,1.702652692E0
7.179794599E0,-1.144442558E0,-5.004461408E-1,1.181667566E0,1.719457282E0
7.184643662E0,-9.408102036E-1,-3.802756369E-1,1.415113211E0,1.741343963E0
7.189492724E0,-7.460069656E-1,-2.753038406E-1,1.544395924E0,1.737088762E0
7.194341787E0,-5.577859879E-1,-2.477490902E-1,1.571506500E0,1.685864022E0
7.199190902E0,-3.856487274E-1,-2.735930085E-1,1.418062210E0,1.494817215E0
7.204039964E0,-2.150764465E-1,-3.930254579E-1,1.202172518E0,1.282944134E0
7.208889027E0,-1.007337570E-1,-5.697063208E-1,8.965783119E-1,1.067035731E0
7.213738089E0,-3.500556946E-2,-7.455684543E-1,5.746228695E-1,9.419602709E-1
7.218587152E0,6.611537933E-2,-9.176042080E-1,2.470765114E-1,9.525836070E-1
7.223436214E0,2.052831650E-1,-1.042088389E0,-5.868053436E-2,1.063735303E0
7.228285277E0,3.540229797E-1,-1.135507107E0,-2.557137012E-1,1.216592848E0
7.233134339E0,4.503822327E-1,-1.154919624E0,-3.458423615E-1,1.286969476E0
7.237983402E0,4.682998657E-1,-1.158079267E0,-4.026627541E-1,1.312474627E0
7.242832464E0,4.295072556E-1,-1.088163376E0,-4.161558151E-1,1.241676962E0
7.247681527E0,3.556919098E-1,-9.865975976E-1,-3.620214462E-1,1.109482349E0
7.252530589E0,3.234767914E-1,-8.349448442E-1,-3.020823002E-1,9.449993881E-1
7.257379652E0,2.826919556E-1,-7.103030682E-1,-2.289078236E-1,7.980250510E-1
7.262228766E0,2.476997375E-1,-6.057631373E-1,-1.496782303E-1,6.713476828E-1
7.267077829E0,2.255954742E-1,-5.478149652E-1,-9.097266197E-2,5.993918413E-1
7.271926891E0,2.067394257E-1,-5.077152848E-1,-6.976366043E-2,5.526146658E-1
7.276775954E0,1.886816025E-1,-4.804559052E-1,-7.193350792E-2,5.211650924E-1
7.281625016E0,1.832780838E-1,-4.395538568E-1,-7.633662224E-2,4.823128953E-1
7.286474079E0,1.903953552E-1,-4.302250147E-1,-8.102822304E-2,4.773987091E-1
7.291323141E0,2.480974197E-1,-3.923451304E-1,-8.902549744E-2,4.726653893E-1
7.296172204E0,2.820453644E-1,-3.353945613E-1,-1.201324463E-1,4.543906953E-1
7.301021266E0,3.303422928E-1,-2.281910777E-1,-1.892676353E-1,4.438687150E-1
7.305870329E0,4.000101089E-1,-1.402030289E-1,-2.633671761E-1,4.990262979E-1
7.310719391E0,5.004568100E-1,-1.147374511E-2,-3.500633240E-1,6.108461314E-1
7.315568506E0,6.482982635E-1,1.317911744E-1,-4.400761127E-1,7.945605938E-1
7.320417568E0,8.171701431E-1,2.322503030E-1,-6.218922138E-1,1.052832927E0
7.325266631E0,9.855270386E-1,3.521897793E-1,-8.356893063E-1,1.339282570E0
7.330115693E0,1.110316277E0,4.581942856E-1,-1.076791883E0,1.613141344E0
7.334964756E0,1.189167976E0,5.597576499E-1,-1.264012694E0,1.823506840E0
7.339813818E0,1.284247398E0,6.710035801E-1,-1.418990374E0,2.028070725E0
7.344662881E0,1.295142174E0,7.533324957E-1,-1.560883522E0,2.163622072E0
7.349511943E0,1.324734688E0,8.114457130E-1,-1.646628022E0,2.263791064E0
7.354361006E0,1.341991425E0,8.548363447E-1,-1.759701729E0,2.372390426E0
7.359210120E0,1.397195816E0,8.524194956E-1,-1.801792622E0,2.434179902E0
7.364059183E0,1.428246498E0,8.352969289E-1,-1.803754091E0,2.447680094E0
7.368908245E0,1.487833977E0,7.962127924E-1,-1.770111322E0,2.445587628E0
7.373757308E0,1.525813103E0,7.853301167E-1,-1.710193634E0,2.422728066E0
7.378606370E0,1.609188080E0,7.380553484E-1,-1.607087493E0,2.391012795E0
7.383455433E0,1.694936275E0,6.927754283E-1,-1.510871768E0,2.373916652E0
7.388304495E0,1.761496544E0,6.303195953E-1,-1.376308203E0,2.322584150E0
7.393153558E0,1.820748329E0,5.865753889E-1,-1.251563191E0,2.285958352E0
7.398002620E0,1.879854202E0,5.088732839E-1,-1.196415305E0,2.285653828E0
7.402851683E0,1.900599003E0,4.355892539E-1,-1.119897127E0,2.248596038E0
7.407700745E0,1.933285236E0,3.810729384E-1,-1.086331010E0,2.250094099E0
7.412549860E0,1.963652134E0,3.454797268E-1,-1.064312458E0,2.260098881E0
7.417398922E0,1.948771477E0,3.097499013E-1,-1.027258635E0,2.224615826E0
7.422247985E0,1.881574631E0,2.929898500E-1,-9.774392843E-1,2.140456423E0
7.427097047E0,1.817084312E0,2.521157861E-1,-9.292403460E-1,2.056415665E0
7.431946110E0,1.783942699E0,2.516856492E-1,-8.803865910E-1,2.005212650E0
7.436795172E0,1.748670101E0,2.414932549E-1,-8.547264338E-1,1.961306552E0
7.441644235E0,1.747120857E0,2.359485626E-1,-7.996587753E-1,1.935860835E0
7.446493297E0,1.752972126E0,2.400961518E-1,-7.630243301E-1,1.926853281E0
7.451342360E0,1.751836777E0,2.276953161E-1,-7.019252777E-1,1.900914607E0
7.456191474E0,1.700666428E0,2.347528040E-1,-6.643383503E-1,1.840847799E0
7.461040537E0,1.647239685E0,2.685659230E-1,-6.648552418E-1,1.796540767E0
7.465889599E0,1.593949795E0,2.741765678E-1,-6.556363106E-1,1.745195608E0
7.470738662E0,1.550397396E0,2.922550142E-1,-6.604540348E-1,1.710363883E0
7.475587724E0,1.499909878E0,3.442376852E-1,-6.097640991E-1,1.655307066E0
7.480436787E0,1.404320240E0,4.083814323E-1,-5.105807781E-1,1.549058896E0
7.485285849E0,1.313875198E0,4.773667455E-1,-4.131186008E-1,1.457674183E0
7.490134912E0,1.283412933E0,5.342751741E-1,-2.938632965E-1,1.420899137E0
7.494983974E0,1.267375946E0,5.911730528E-1,-2.104468346E-1,1.414218950E0
7.499833089E0,1.232171059E0,6.360666752E-1,-1.249730587E-1,1.392280359E0
7.504682152E0,1.175350189E0,6.547257900E-1,-4.966902733E-2,1.346321262E0
7.509531214E0,1.106480598E0,7.164074183E-1,1.064586639E-2,1.318200379E0
7.514380277E0,1.061431885E0,7.110893726E-1,7.991671562E-2,1.280106411E0
7.519229339E0,9.876041412E-1,7.367064953E-1,1.342704296E-1,1.239405885E0
7.524078402E0,9.208641052E-1,7.716404796E-1,1.665055752E-1,1.212907184E0
7.528927464E0,8.277177811E-1,8.063047528E-1,1.837399006E-1,1.170044628E0
7.533776527E0,7.559347153E-1,8.477866650E-1,1.069376469E-1,1.140883510E0
7.538625589E0,6.505174637E-1,8.722206354E-1,-1.599144936E-2,1.088208406E0
7.543474704E0,5.641546249E-1,9.059484005E-1,-2.038905621E-1,1.086546965E0
7.548323766E0,4.539203644E-1,9.441114664E-1,-3.320217133E-1,1.098921551E0
7.553172829E0,3.295202255E-1,9.865994453E-1,-4.024653435E-1,1.115320760E0
7.558021891E0,2.006397247E-1,1.033300519E0,-4.961962700E-1,1.163691110E0
7.562870954E0,7.694244385E-2,1.069838285E0,-5.985224247E-1,1.228292795E0
7.567720016E0,-6.772613525E-2,1.067608118E0,-6.779301167E-1,1.266476674E0
7.572569079E0,-2.188882828E-1,1.093573809E0,-7.101936340E-1,1.322191648E0
7.577418141E0,-3.717174530E-1,1.068961382E0,-7.072181702E-1,1.334544807E0
7.582267204E0,-5.381517410E-1,1.070381403E0,-6.953125000E-1,1.385201472E0
7.587116318E0,-6.608886719E-1,1.073973060E0,-6.149697304E-1,1.402989572E0
7.591965381E0,-8.070125580E-1,1.039186835E0,-5.120468140E-1,1.411867730E0
7.596814443E0,-9.575071335E-1,1.011428833E0,-3.917686939E-1,1.446820965E0
7.601663506E0,-1.098140717E0,1.007499456E0,-2.545194626E-1,1.511869156E0
7.606512568E0,-1.193192482E0,9.651321173E-1,-1.221854687E-1,1.539518623E0
7.611361631E0,-1.288234711E0,9.562668800E-1,4.871606827E-3,1.604374878E0
7.616210693E0,-1.378507614E0,9.187970161E-1,1.074542999E-1,1.660125786E0
7.621059756E0,-1.449758530E0,8.742255569E-1,1.996769905E-1,1.704682087E0
7.625908818E0,-1.557095528E0,8.344132900E-1,2.907459736E-1,1.790342214E0
7.630757933E0,-1.616950989E0,8.183784485E-1,3.850502968E-1,1.852710856E0
7.635606995E0,-1.636635780E0,8.118476868E-1,4.273335934E-1,1.876242880E0
7.640456058E0,-1.630581856E0,7.862212658E-1,4.820413589E-1,1.873313892E0
7.645305120E0,-1.622783661E0,8.036392927E-1,5.178894997E-1,1.883473508E0
7.650154183E0,-1.591740608E0,7.923007011E-1,5.301220417E-1,1.855372724E0
7.655003245E0,-1.547046661E0,7.904187441E-1,5.426652431E-1,1.820055145E0
7.659852308E0,-1.498272896E0,7.907437682E-1,4.934380054E-1,1.764533491E0
7.664701370E0,-1.459661484E0,7.405577898E-1,4.043886662E-1,1.685991602E0
7.669550485E0,-1.421525955E0,6.829197407E-1,2.544455528E-1,1.597453584E0
7.674399547E0,-1.400426865E0,5.533302426E-1,1.231048107E-1,1.510802619E0
7.679248610E0,-1.374650002E0,3.975143135E-1,-2.255988121E-2,1.431149609E0
7.684097672E0,-1.422858238E0,2.084714174E-1,-1.293108463E-1,1.443851513E0
7.688946735E0,-1.477877617E0,-1.683324575E-3,-1.799895763E-1,1.488798620E0
7.693795797E0,-1.529991150E0,-2.183773220E-1,-1.670663357E-1,1.554500799E0
7.698644860E0,-1.586279869E0,-3.984083533E-1,-1.238403320E-1,1.640228480E0
7.703493922E0,-1.620338440E0,-5.343762636E-1,-6.200242043E-2,1.707307515E0
7.708342985E0,-1.665619850E0,-6.859529018E-1,5.671405792E-2,1.802231215E0
7.713192099E0,-1.733975410E0,-8.028241396E-1,2.014086246E-1,1.921396044E0
7.718041162E0,-1.858804703E0,-9.160560369E-1,3.553969860E-1,2.102527194E0
7.722890224E0,-2.011440277E0,-9.709084034E-1,5.423388481E-1,2.298409568E0
7.727739287E0,-2.148958206E0,-9.914245605E-1,7.283668518E-1,2.476178972E0
7.732588349E0,-2.293057442E0,-9.612746239E-1,9.153900146E-1,2.649547171E0
7.737437412E0,-2.431944847E0,-8.758673668E-1,1.050341129E0,2.790110369E0
7.742286474E0,-2.558716774E0,-7.714475393E-1,1.132539988E0,2.902552266E0
7.747135589E0,-2.606694221E0,-6.290574074E-1,1.156598568E0,2.920323310E0
7.751984652E0,-2.585762024E0,-4.944864810E-1,1.124320507E0,2.862652394E0
7.756833714E0,-2.515256882E0,-3.512241840E-1,1.037778854E0,2.743512449E0
7.761682777E0,-2.411954880E0,-2.473925799E-1,8.995091915E-1,2.586087047E0
7.766531839E0,-2.239969254E0,-1.973844767E-1,7.576427460E-1,2.372855963E0
7.771380902E0,-2.056656837E0,-1.701126248E-1,5.527069569E-1,2.136413029E0
7.776229964E0,-1.809329033E0,-2.036371082E-1,3.544673920E-1,1.854935781E0
7.781079027E0,-1.533795357E0,-2.689409852E-1,1.847581863E-1,1.568117673E0
7.785928141E0,-1.239605904E0,-3.725468516E-1,-4.196405411E-3,1.294384627E0
7.790777204E0,-9.626703262E-1,-5.162968636E-1,-1.217412949E-1,1.099144008E0
7.795626266E0,-7.197513580E-1,-6.566945910E-1,-2.159860134E-1,9.979678158E-1
7.800475329E0,-4.845294952E-1,-7.982029915E-1,-2.487957478E-1,9.663312949E-1
7.805324391E0,-3.335103989E-1,-9.359124899E-1,-2.395098209E-1,1.022020709E0
7.810173454E0,-2.403163910E-1,-1.062538028E0,-2.097401619E-1,1.109382695E0
7.815022516E0,-1.332073212E-1,-1.175640225E0,-1.380820274E-1,1.191193005E0
7.819871579E0,-6.237316132E-2,-1.251350284E0,-5.798578262E-2,1.254244910E0
7.824720693E0,5.747795105E-3,-1.294499993E0,-3.856825829E-2,1.295087171E0
7.829569756E0,6.884574890E-2,-1.362504840E0,-7.809638977E-3,1.364265431E0
7.834418818E0,8.881092072E-2,-1.417127132E0,3.944253922E-2,1.420454999E0
7.839267881E0,1.160383224E-1,-1.429952145E0,1.180045605E-1,1.439497518E0
7.844116943E0,1.100521088E-1,-1.418094635E0,2.379207611E-1,1.442120019E0
7.848966006E0,9.723758698E-2,-1.367664218E0,3.635003567E-1,1.418482665E0
7.853815120E0,5.609321594E-2,-1.295911551E0,4.278576374E-1,1.365867985E0
